participant,block,trial,condition,pic_presence,cue,prime,target,target_version,resp_acc,RT
Fs13,1,1,noise,absent,notCued,noise,NA,NA_3,1,6668
Fs13,1,2,congruent,present,label,laptop,laptop,laptop_4,1,7464
Fs13,1,3,noise,absent,notCued,noise,NA,NA_3,1,7367
Fs13,1,4,incongruent,absent,label,laptop,NA,NA_4,1,7277
Fs13,1,5,noise,present,notCued,noise,wheelbarrow,wheelbarrow_1,0,7779
Fs13,1,6,congruent,present,label,accordion,accordion,accordion_1,0,7589
Fs13,1,7,noise,present,notCued,noise,pillow,pillow_4,0,7030
Fs13,1,8,noise,present,notCued,noise,anchor,anchor_4,0,6629
Fs13,1,9,noise,present,notCued,noise,musicstand,musicstand_4,0,7530
Fs13,1,10,noise,absent,notCued,noise,NA,NA_1,1,7169
Fs13,1,11,congruent,present,label,microphone,microphone,microphone_1,0,6590
Fs13,1,12,congruent,present,label,feather,feather,feather_3,0,6652
Fs13,1,13,noise,absent,notCued,noise,NA,NA_3,1,7541
Fs13,1,14,congruent,present,label,corkscrew,corkscrew,corkscrew_1,0,6865
Fs13,1,15,noise,absent,notCued,noise,NA,NA_2,1,6585
Fs13,1,16,incongruent,absent,label,houseplant,NA,NA_1,1,6515
Fs13,1,17,noise,present,notCued,noise,eyeglasses,eyeglasses_4,0,6720
Fs13,1,18,noise,absent,notCued,noise,NA,NA_1,1,6574
Fs13,1,19,noise,present,notCued,noise,houseplant,houseplant_4,0,6527
Fs13,1,20,congruent,present,label,tupperwarecontainer,tupperwarecontainer,tupperwarecontainer_2,0,6528
Fs13,1,21,incongruent,absent,label,anchor,NA,NA_3,1,6746
Fs13,1,22,congruent,present,label,corset,corset,corset_1,0,6651
Fs13,1,23,noise,present,notCued,noise,accordion,accordion_4,0,6785
Fs13,1,24,noise,present,notCued,noise,pillow,pillow_3,0,6520
Fs13,1,25,noise,absent,notCued,noise,NA,NA_2,1,6477
Fs13,1,26,noise,absent,notCued,noise,NA,NA_1,1,6528
Fs13,1,27,noise,absent,notCued,noise,NA,NA_3,1,6448
Fs13,1,28,incongruent,absent,label,vacuumcleaner,NA,NA_3,1,7697
Fs13,1,29,congruent,present,label,birdcage,birdcage,birdcage_4,0,7403
Fs13,1,30,noise,absent,notCued,noise,NA,NA_1,1,6557
Fs13,1,31,congruent,present,label,coffeemaker,coffeemaker,coffeemaker_1,0,7271
Fs13,1,32,incongruent,absent,label,pillow,NA,NA_2,1,7802
Fs13,1,33,incongruent,absent,label,robot,NA,NA_1,1,7022
Fs13,1,34,congruent,present,label,cooler,cooler,cooler_1,0,7089
Fs13,1,35,noise,present,notCued,noise,fireplace,fireplace_2,0,7068
Fs13,1,36,noise,present,notCued,noise,fireplace,fireplace_3,0,6879
Fs13,1,37,incongruent,absent,label,anchor,NA,NA_2,1,7056
Fs13,1,38,incongruent,present,label,wheelchair,sewingmachine,sewingmachine_2,0,7103
Fs13,1,39,noise,absent,notCued,noise,NA,NA_4,1,7236
Fs13,1,40,incongruent,absent,label,perfumebottle,NA,NA_3,1,6785
Fs13,1,41,noise,absent,notCued,noise,NA,NA_2,1,6886
Fs13,1,42,noise,absent,notCued,noise,NA,NA_4,1,6816
Fs13,1,43,congruent,present,label,houseplant,houseplant,houseplant_2,1,6353
Fs13,1,44,incongruent,absent,label,cooler,NA,NA_1,1,6461
Fs13,1,45,incongruent,absent,label,laudrybasket,NA,NA_3,1,6353
Fs13,1,46,noise,present,notCued,noise,musicstand,musicstand_3,0,8271
Fs13,1,47,congruent,present,label,coffeemaker,coffeemaker,coffeemaker_3,1,7458
Fs13,1,48,noise,absent,notCued,noise,NA,NA_1,1,6976
Fs13,1,49,incongruent,absent,label,mailbox,NA,NA_1,1,7590
Fs13,1,50,noise,present,notCued,noise,iceskates,iceskates_1,0,7040
Fs13,1,51,incongruent,absent,label,sewingmachine,NA,NA_1,1,6958
Fs13,1,52,incongruent,absent,label,perfumebottle,NA,NA_2,1,6352
Fs13,1,53,noise,present,notCued,noise,toaster,toaster_3,0,6946
Fs13,1,54,noise,absent,notCued,noise,NA,NA_4,1,6351
Fs13,1,55,congruent,present,label,pillow,pillow,pillow_2,0,6825
Fs13,1,56,congruent,present,label,sink,sink,sink_3,0,6874
Fs13,1,57,congruent,present,label,kettle,kettle,kettle_2,0,7151
Fs13,1,58,congruent,present,label,accordion,accordion,accordion_2,0,6963
Fs13,1,59,congruent,present,label,sewingmachine,sewingmachine,sewingmachine_1,0,6893
Fs13,1,60,noise,present,notCued,noise,anchor,anchor_2,0,6839
Fs13,1,61,congruent,present,label,doorknocker,doorknocker,doorknocker_1,0,7466
Fs13,1,62,incongruent,present,label,corkscrew,strainer,strainer_1,0,6764
Fs13,1,63,noise,absent,notCued,noise,NA,NA_1,1,7126
Fs13,1,64,incongruent,absent,label,cashregister,NA,NA_4,1,7566
Fs13,1,65,noise,present,notCued,noise,birdhouse,birdhouse_1,0,7331
Fs13,1,66,noise,present,notCued,noise,vacuumcleaner,vacuumcleaner_4,0,7168
Fs13,1,67,incongruent,present,label,vacuumcleaner,robot,robot_4,0,6709
Fs13,1,68,noise,absent,notCued,noise,NA,NA_2,1,6593
Fs13,1,69,noise,absent,notCued,noise,NA,NA_4,1,6497
Fs13,1,70,congruent,present,label,kettle,kettle,kettle_3,1,6417
Fs13,1,71,incongruent,absent,label,corkscrew,NA,NA_4,1,9088
Fs13,1,72,incongruent,absent,label,leaf,NA,NA_3,1,7162
Fs13,1,73,incongruent,absent,label,soapdispenser,NA,NA_2,1,8359
Fs13,1,74,congruent,present,label,pillow,pillow,pillow_1,0,6667
Fs13,1,75,noise,absent,notCued,noise,NA,NA_4,1,7614
Fs13,1,76,incongruent,absent,label,birdhouse,NA,NA_3,1,7672
Fs13,1,77,noise,present,notCued,noise,highchair,highchair_2,0,7016
Fs13,1,78,congruent,present,label,iceskates,iceskates,iceskates_4,0,7034
Fs13,1,79,incongruent,present,label,vacuumcleaner,houseplant,houseplant_1,0,7077
Fs13,1,80,noise,present,notCued,noise,anchor,anchor_3,0,6997
Fs13,1,81,incongruent,absent,label,wheelchair,NA,NA_3,1,6978
Fs13,1,82,noise,present,notCued,noise,fireplace,fireplace_1,0,7100
Fs13,1,83,noise,absent,notCued,noise,NA,NA_2,1,7713
Fs13,1,84,noise,absent,notCued,noise,NA,NA_3,1,6917
Fs13,1,85,noise,present,notCued,noise,microphone,microphone_2,0,6831
Fs13,1,86,incongruent,absent,label,crown,NA,NA_4,1,8093
Fs13,1,87,noise,absent,notCued,noise,NA,NA_4,1,7317
Fs13,1,88,noise,present,notCued,noise,cashregister,cashregister_3,0,7367
Fs13,1,89,noise,present,notCued,noise,sewingmachine,sewingmachine_4,0,8982
Fs13,1,90,noise,present,notCued,noise,doorknocker,doorknocker_4,0,6842
Fs13,1,91,congruent,present,label,swissarmyknife,swissarmyknife,swissarmyknife_2,0,6824
Fs13,1,92,noise,present,notCued,noise,sewingmachine,sewingmachine_3,0,7508
Fs13,1,93,noise,present,notCued,noise,strainer,strainer_4,0,7747
Fs13,1,94,noise,absent,notCued,noise,NA,NA_2,1,8278
Fs13,1,95,noise,present,notCued,noise,corkscrew,corkscrew_2,0,6547
Fs13,1,96,noise,present,notCued,noise,kettle,kettle_4,1,7633
Fs13,1,97,congruent,present,label,cashregister,cashregister,cashregister_2,0,7406
Fs13,1,98,congruent,present,label,musicstand,musicstand,musicstand_1,0,7226
Fs13,1,99,incongruent,absent,label,accordion,NA,NA_3,1,8848
Fs13,1,100,noise,present,notCued,noise,typewriter,typewriter_1,1,7312
Fs13,1,101,incongruent,absent,label,perfumebottle,NA,NA_4,1,7810
Fs13,1,102,incongruent,absent,label,soapdispenser,NA,NA_1,1,7119
Fs13,1,103,incongruent,absent,label,leaf,NA,NA_1,1,6528
Fs13,1,104,noise,present,notCued,noise,coffin,coffin_1,1,7559
Fs13,1,105,incongruent,present,label,fireplace,sink,sink_1,0,7874
Fs13,1,106,noise,absent,notCued,noise,NA,NA_3,1,7241
Fs13,1,107,incongruent,absent,label,musicstand,NA,NA_1,1,6791
Fs13,1,108,incongruent,absent,label,cooler,NA,NA_4,1,6701
Fs13,1,109,noise,present,notCued,noise,tupperwarecontainer,tupperwarecontainer_3,1,7424
Fs13,1,110,noise,absent,notCued,noise,NA,NA_4,1,7360
Fs13,1,111,noise,absent,notCued,noise,NA,NA_1,1,6507
Fs13,1,112,noise,present,notCued,noise,corset,corset_2,1,6381
Fs13,1,113,noise,present,notCued,noise,microphone,microphone_4,1,6863
Fs13,1,114,congruent,present,label,toaster,toaster,toaster_1,1,6872
Fs13,1,115,congruent,present,label,crown,crown,crown_3,0,7613
Fs13,1,116,incongruent,absent,label,typewriter,NA,NA_1,1,6568
Fs13,1,117,noise,absent,notCued,noise,NA,NA_2,1,7123
Fs13,1,118,incongruent,absent,label,strainer,NA,NA_4,1,6585
Fs13,1,119,incongruent,absent,label,strainer,NA,NA_2,1,8295
Fs13,1,120,incongruent,absent,label,birdcage,NA,NA_3,1,6889
Fs13,1,121,incongruent,absent,label,tractor,NA,NA_3,1,6513
Fs13,1,122,congruent,present,label,soapdispenser,soapdispenser,soapdispenser_4,1,7522
Fs13,1,123,noise,present,notCued,noise,cooler,cooler_3,0,6964
Fs13,1,124,incongruent,absent,label,wheelchair,NA,NA_4,1,7233
Fs13,1,125,noise,present,notCued,noise,mailbox,mailbox_2,1,6794
Fs13,1,126,noise,absent,notCued,noise,NA,NA_1,1,6421
Fs13,1,127,noise,present,notCued,noise,birdcage,birdcage_3,0,6841
Fs13,1,128,incongruent,absent,label,birdcage,NA,NA_1,1,6638
Fs13,1,129,congruent,present,label,highchair,highchair,highchair_1,0,6847
Fs13,1,130,noise,absent,notCued,noise,NA,NA_4,1,6694
Fs13,1,131,congruent,present,label,iceskates,iceskates,iceskates_3,0,6663
Fs13,1,132,incongruent,absent,label,corset,NA,NA_3,1,6413
Fs13,1,133,congruent,present,label,accordion,accordion,accordion_3,0,6711
Fs13,1,134,noise,present,notCued,noise,musicstand,musicstand_2,0,6546
Fs13,1,135,incongruent,absent,label,feather,NA,NA_2,1,6739
Fs13,1,136,noise,present,notCued,noise,strainer,strainer_3,1,7688
Fs13,1,137,noise,absent,notCued,noise,NA,NA_3,1,6490
Fs13,1,138,noise,absent,notCued,noise,NA,NA_2,1,7191
Fs13,1,139,incongruent,absent,label,toaster,NA,NA_2,1,6330
Fs13,1,140,noise,absent,notCued,noise,NA,NA_1,1,10613
Fs13,1,141,noise,absent,notCued,noise,NA,NA_4,1,8533
Fs13,1,142,noise,present,notCued,noise,swissarmyknife,swissarmyknife_3,0,7117
Fs13,1,143,noise,present,notCued,noise,anchor,anchor_1,0,7623
Fs13,1,144,congruent,present,label,laptop,laptop,laptop_3,0,7365
Fs13,1,145,noise,absent,notCued,noise,NA,NA_4,1,6373
Fs13,1,146,congruent,present,label,tupperwarecontainer,tupperwarecontainer,tupperwarecontainer_1,1,7472
Fs13,1,147,incongruent,absent,label,corkscrew,NA,NA_1,1,6614
Fs13,1,148,congruent,present,label,perfumebottle,perfumebottle,perfumebottle_2,1,7206
Fs13,1,149,noise,absent,notCued,noise,NA,NA_3,1,6389
Fs13,1,150,noise,absent,notCued,noise,NA,NA_4,1,6423
Fs13,1,151,incongruent,absent,label,tractor,NA,NA_3,1,6446
Fs13,1,152,congruent,present,label,crown,crown,crown_4,1,6445
Fs13,1,153,incongruent,absent,label,typewriter,NA,NA_1,1,6375
Fs13,1,154,noise,present,notCued,noise,corset,corset_4,1,6413
Fs13,1,155,congruent,present,label,corkscrew,corkscrew,corkscrew_3,1,7371
Fs13,1,156,congruent,present,label,mailbox,mailbox,mailbox_1,1,6865
Fs13,1,157,noise,present,notCued,noise,laudrybasket,laudrybasket_2,1,7333
Fs13,1,158,noise,absent,notCued,noise,NA,NA_3,1,6601
Fs13,1,159,noise,absent,notCued,noise,NA,NA_3,1,6442
Fs13,1,160,incongruent,absent,label,iceskates,NA,NA_2,1,6462
Fs13,1,161,noise,present,notCued,noise,wheelbarrow,wheelbarrow_3,1,7154
Fs13,1,162,incongruent,absent,label,highchair,NA,NA_2,1,6505
Fs13,1,163,incongruent,absent,label,sink,NA,NA_4,1,6335
Fs13,1,164,incongruent,absent,label,wheelbarrow,NA,NA_2,1,8118
Fs13,1,165,noise,present,notCued,noise,wheelbarrow,wheelbarrow_2,1,7305
Fs13,1,166,congruent,present,label,cashregister,cashregister,cashregister_4,1,6540
Fs13,1,167,congruent,present,label,robot,robot,robot_1,1,6487
Fs13,1,168,incongruent,absent,label,crown,NA,NA_3,1,6633
Fs13,1,169,noise,absent,notCued,noise,NA,NA_4,1,6993
Fs13,1,170,incongruent,absent,label,kettle,NA,NA_3,1,6621
Fs13,1,171,congruent,present,label,laptop,laptop,laptop_2,1,6508
Fs13,1,172,noise,present,notCued,noise,kettle,kettle_1,1,6577
Fs13,1,173,incongruent,present,label,iceskates,wheelbarrow,wheelbarrow_4,0,6992
Fs13,1,174,congruent,present,label,leaf,leaf,leaf_3,0,6959
Fs13,1,175,noise,present,notCued,noise,perfumebottle,perfumebottle_3,1,6950
Fs13,1,176,incongruent,absent,label,feather,NA,NA_1,1,6918
Fs13,1,177,noise,present,notCued,noise,robot,robot_2,1,7091
Fs13,1,178,congruent,present,label,feather,feather,feather_4,1,7129
Fs13,1,179,noise,absent,notCued,noise,NA,NA_2,0,7227
Fs13,1,180,incongruent,absent,label,coffin,NA,NA_3,1,6463
Fs13,1,181,incongruent,present,label,microphone,tupperwarecontainer,tupperwarecontainer_4,1,6617
Fs13,1,182,noise,absent,notCued,noise,NA,NA_2,1,6329
Fs13,1,183,incongruent,absent,label,kettle,NA,NA_1,1,6729
Fs13,1,184,noise,present,notCued,noise,coffeemaker,coffeemaker_2,1,6612
Fs13,1,185,noise,present,notCued,noise,leaf,leaf_4,1,5907
Fs13,1,186,noise,present,notCued,noise,birdcage,birdcage_1,1,4026
Fs13,1,187,congruent,present,label,sink,sink,sink_4,1,2642
Fs13,1,188,noise,absent,notCued,noise,NA,NA_2,1,1373
Fs13,1,189,noise,present,notCued,noise,coffeemaker,coffeemaker_4,1,2746
Fs13,1,190,incongruent,absent,label,strainer,NA,NA_2,1,1587
Fs13,1,191,noise,absent,notCued,noise,NA,NA_2,1,1899
Fs13,1,192,noise,present,notCued,noise,strainer,strainer_2,0,4119
Fs13,1,193,incongruent,absent,label,eyeglasses,NA,NA_3,1,1691
Fs13,1,194,congruent,present,label,sink,sink,sink_2,0,4966
Fs13,1,195,noise,absent,notCued,noise,NA,NA_2,1,2743
Fs13,1,196,noise,absent,notCued,noise,NA,NA_4,1,2637
Fs13,1,197,noise,absent,notCued,noise,NA,NA_3,1,2535
Fs13,1,198,noise,present,notCued,noise,corset,corset_3,1,1797
Fs13,1,199,noise,absent,notCued,noise,NA,NA_2,1,3904
Fs13,1,200,incongruent,absent,label,iceskates,NA,NA_1,1,1479
Fs13,1,201,congruent,present,label,highchair,highchair,highchair_4,1,5805
Fs13,1,202,congruent,present,label,swissarmyknife,swissarmyknife,swissarmyknife_4,1,1482
Fs13,1,203,incongruent,absent,label,wheelchair,NA,NA_2,1,2009.9999999999998
Fs13,1,204,noise,absent,notCued,noise,NA,NA_2,0,2531
Fs13,1,205,noise,present,notCued,noise,wheelchair,wheelchair_2,1,2955
Fs13,1,206,noise,absent,notCued,noise,NA,NA_4,1,1584
Fs13,1,207,noise,absent,notCued,noise,NA,NA_3,1,2005.9999999999998
Fs13,1,208,congruent,present,label,cashregister,cashregister,cashregister_1,1,1267
Fs13,1,209,incongruent,present,label,wheelchair,feather,feather_2,1,3169
Fs13,1,210,noise,present,notCued,noise,tractor,tractor_3,1,1689
Fs13,1,211,noise,present,notCued,noise,eyeglasses,eyeglasses_1,1,5068
Fs13,1,212,incongruent,present,label,laptop,leaf,leaf_2,1,6792
Fs13,1,213,noise,absent,notCued,noise,NA,NA_1,1,3804
Fs13,1,214,noise,absent,notCued,noise,NA,NA_1,1,2749
Fs13,1,215,noise,present,notCued,noise,vacuumcleaner,vacuumcleaner_3,1,2641
Fs13,1,216,incongruent,absent,label,swissarmyknife,NA,NA_3,1,3695
Fs13,1,217,congruent,present,label,laudrybasket,laudrybasket,laudrybasket_4,1,3066
Fs13,1,218,noise,present,notCued,noise,toaster,toaster_2,1,2960
Fs13,1,219,noise,present,notCued,noise,crown,crown_1,1,5809
Fs13,1,220,incongruent,absent,label,doorknocker,NA,NA_4,1,3697
Fs13,1,221,noise,absent,notCued,noise,NA,NA_1,1,3906
Fs13,1,222,incongruent,absent,label,wheelbarrow,NA,NA_3,1,2223
Fs13,1,223,noise,absent,notCued,noise,NA,NA_1,1,1801
Fs13,1,224,noise,present,notCued,noise,vacuumcleaner,vacuumcleaner_2,1,4857
Fs13,1,225,incongruent,absent,label,iceskates,NA,NA_3,1,2009
Fs13,1,226,noise,absent,notCued,noise,NA,NA_4,0,4436
Fs13,1,227,noise,present,notCued,noise,birdhouse,birdhouse_3,1,1478
Fs13,1,228,noise,present,notCued,noise,iceskates,iceskates_2,1,2220
Fs13,1,229,congruent,present,label,coffin,coffin,coffin_4,1,1584
Fs13,1,230,incongruent,absent,label,toaster,NA,NA_4,1,1483
Fs13,1,231,congruent,present,label,mailbox,mailbox,mailbox_3,1,3066
Fs13,1,232,noise,absent,notCued,noise,NA,NA_1,1,3277
Fs13,1,233,congruent,present,label,laudrybasket,laudrybasket,laudrybasket_1,1,1478
Fs13,1,234,noise,present,notCued,noise,doorknocker,doorknocker_2,1,3905
Fs13,1,235,congruent,present,label,microphone,microphone,microphone_3,1,1374
Fs13,1,236,incongruent,absent,label,crown,NA,NA_4,1,2326
Fs13,1,237,incongruent,absent,label,sewingmachine,NA,NA_1,1,1267
Fs13,1,238,incongruent,absent,label,wheelchair,NA,NA_4,1,1375
Fs13,1,239,noise,absent,notCued,noise,NA,NA_4,1,2110
Fs13,1,240,noise,absent,notCued,noise,NA,NA_4,1,1161
Fs13,1,241,noise,absent,notCued,noise,NA,NA_2,1,2857
Fs13,1,242,incongruent,absent,label,feather,NA,NA_3,1,2114
Fs13,1,243,congruent,present,label,feather,feather,feather_1,1,1163
Fs13,1,244,incongruent,absent,label,iceskates,NA,NA_1,1,2532
Fs13,1,245,noise,absent,notCued,noise,NA,NA_1,1,1163
Fs13,1,246,noise,absent,notCued,noise,NA,NA_2,1,1163
Fs13,1,247,noise,present,notCued,noise,typewriter,typewriter_4,1,3699
Fs13,1,248,noise,present,notCued,noise,typewriter,typewriter_2,1,1689
Fs13,1,249,congruent,present,label,houseplant,houseplant,houseplant_3,1,1372
Fs13,1,250,incongruent,absent,label,kettle,NA,NA_4,1,1793
Fs13,1,251,noise,present,notCued,noise,cooler,cooler_4,1,3276
Fs13,1,252,noise,present,notCued,noise,mailbox,mailbox_4,1,1795
Fs13,1,253,noise,absent,notCued,noise,NA,NA_4,1,1479
Fs13,1,254,noise,present,notCued,noise,coffin,coffin_2,1,2535
Fs13,1,255,noise,present,notCued,noise,birdhouse,birdhouse_2,1,6349
Fs13,1,256,incongruent,absent,label,sink,NA,NA_2,1,1374
Fs13,1,257,noise,present,notCued,noise,wheelchair,wheelchair_3,1,6511
Fs13,1,258,noise,absent,notCued,noise,NA,NA_4,1,2426
Fs13,1,259,noise,absent,notCued,noise,NA,NA_4,1,4009.0000000000005
Fs13,1,260,incongruent,present,label,tupperwarecontainer,soapdispenser,soapdispenser_3,1,5700
Fs13,1,261,noise,absent,notCued,noise,NA,NA_2,1,3597
Fs13,1,262,congruent,present,label,cooler,cooler,cooler_2,1,1478
Fs13,1,263,incongruent,absent,label,wheelchair,NA,NA_1,1,1480
Fs13,1,264,congruent,present,label,soapdispenser,soapdispenser,soapdispenser_1,0,1585
Fs13,1,265,incongruent,absent,label,mailbox,NA,NA_4,1,1163
Fs13,1,266,incongruent,absent,label,toaster,NA,NA_1,1,2004
Fs13,1,267,noise,present,notCued,noise,soapdispenser,soapdispenser_2,1,2428
Fs13,1,268,noise,present,notCued,noise,perfumebottle,perfumebottle_1,1,1903
Fs13,1,269,noise,present,notCued,noise,tractor,tractor_4,1,2429
Fs13,1,270,incongruent,absent,label,kettle,NA,NA_4,1,4121
Fs13,1,271,incongruent,absent,label,houseplant,NA,NA_4,1,2431
Fs13,1,272,noise,absent,notCued,noise,NA,NA_3,1,1267
Fs13,1,273,incongruent,absent,label,vacuumcleaner,NA,NA_2,1,1372
Fs13,1,274,incongruent,absent,label,birdhouse,NA,NA_1,1,1058
Fs13,1,275,incongruent,absent,label,coffeemaker,NA,NA_3,1,1798
Fs13,1,276,noise,present,notCued,noise,fireplace,fireplace_4,1,4335
Fs13,1,277,congruent,present,label,vacuumcleaner,vacuumcleaner,vacuumcleaner_1,1,1162
Fs13,1,278,incongruent,absent,label,corkscrew,NA,NA_1,1,2641
Fs13,1,279,incongruent,absent,label,birdhouse,NA,NA_2,1,3273
Fs13,1,280,noise,absent,notCued,noise,NA,NA_1,1,1161
Fs13,1,281,noise,absent,notCued,noise,NA,NA_2,1,1270
Fs13,1,282,incongruent,present,label,toaster,birdhouse,birdhouse_4,1,4540
Fs13,1,283,incongruent,absent,label,tupperwarecontainer,NA,NA_1,1,1055
Fs13,1,284,congruent,present,label,eyeglasses,eyeglasses,eyeglasses_3,0,528
Fs13,1,285,congruent,present,label,coffin,coffin,coffin_3,1,1584
Fs13,1,286,incongruent,absent,label,anchor,NA,NA_3,1,1055
Fs13,1,287,noise,present,notCued,noise,wheelchair,wheelchair_4,1,2324
Fs13,1,288,congruent,present,label,laptop,laptop,laptop_1,1,1162
Fs13,1,289,noise,absent,notCued,noise,NA,NA_3,1,2219
Fs13,1,290,noise,present,notCued,noise,wheelchair,wheelchair_1,1,7030
Fs13,1,291,noise,absent,notCued,noise,NA,NA_2,1,1268
Fs13,1,292,noise,present,notCued,noise,doorknocker,doorknocker_3,0,528
Fs13,1,293,incongruent,absent,label,tractor,NA,NA_2,1,2005
Fs13,1,294,incongruent,absent,label,birdhouse,NA,NA_2,1,2323
Fs13,1,295,congruent,present,label,laudrybasket,laudrybasket,laudrybasket_3,1,2956
Fs13,1,296,noise,absent,notCued,noise,NA,NA_3,1,1372
Fs13,1,297,congruent,present,label,perfumebottle,perfumebottle,perfumebottle_4,1,4008
Fs13,1,298,noise,present,notCued,noise,tractor,tractor_2,1,2323
Fs13,1,299,incongruent,absent,label,fireplace,NA,NA_3,1,2114
Fs13,1,300,incongruent,present,label,microphone,robot,robot_3,1,4435
Fs13,1,301,noise,absent,notCued,noise,NA,NA_4,1,2112
Fs13,1,302,noise,present,notCued,noise,toaster,toaster_4,1,1902
Fs13,1,303,noise,absent,notCued,noise,NA,NA_4,1,3271
Fs13,1,304,incongruent,absent,label,pillow,NA,NA_3,1,1478
Fs13,1,305,incongruent,absent,label,toaster,NA,NA_3,1,1266
Fs13,1,306,incongruent,absent,label,crown,NA,NA_2,1,1268
Fs13,1,307,noise,absent,notCued,noise,NA,NA_2,1,1586
Fs13,1,308,congruent,present,label,tractor,tractor,tractor_1,1,2005.9999999999998
Fs13,1,309,noise,absent,notCued,noise,NA,NA_1,1,2217
Fs13,1,310,noise,absent,notCued,noise,NA,NA_1,1,4223
Fs13,1,311,incongruent,absent,label,musicstand,NA,NA_4,1,1478
Fs13,1,312,noise,present,notCued,noise,birdcage,birdcage_2,1,2537
Fs13,1,313,noise,absent,notCued,noise,NA,NA_2,1,2114
Fs13,1,314,noise,present,notCued,noise,typewriter,typewriter_3,1,1267
Fs13,1,315,noise,present,notCued,noise,highchair,highchair_3,1,3058
Fs13,1,316,congruent,present,label,eyeglasses,eyeglasses,eyeglasses_2,1,3905
Fs13,1,317,noise,present,notCued,noise,crown,crown_2,1,3275
Fs13,1,318,congruent,present,label,leaf,leaf,leaf_1,0,2428
Fs13,1,319,congruent,present,label,corkscrew,corkscrew,corkscrew_4,0,2746
Fs13,1,320,noise,present,notCued,noise,swissarmyknife,swissarmyknife_1,1,2744
Fs51,1,1,noise,absent,notCued,noise,NA,NA_2,0,6478
Fs51,1,2,incongruent,absent,label,iceskates,NA,NA_1,1,6573
Fs51,1,3,incongruent,present,label,anchor,corset,corset_4,0,6548
Fs51,1,4,noise,present,notCued,noise,feather,feather_4,0,6593
Fs51,1,5,congruent,present,label,kettle,kettle,kettle_4,0,6481
Fs51,1,6,incongruent,absent,label,toaster,NA,NA_2,1,6413
Fs51,1,7,incongruent,absent,label,eyeglasses,NA,NA_2,1,7083
Fs51,1,8,incongruent,absent,label,typewriter,NA,NA_1,1,6499
Fs51,1,9,incongruent,present,label,strainer,highchair,highchair_2,0,6510
Fs51,1,10,noise,present,notCued,noise,strainer,strainer_1,0,7799
Fs51,1,11,incongruent,absent,label,feather,NA,NA_2,0,6808
Fs51,1,12,noise,present,notCued,noise,wheelbarrow,wheelbarrow_4,0,6471
Fs51,1,13,congruent,present,label,corkscrew,corkscrew,corkscrew_3,0,7094
Fs51,1,14,noise,present,notCued,noise,laptop,laptop_2,0,6497
Fs51,1,15,incongruent,absent,label,crown,NA,NA_3,1,6597
Fs51,1,16,noise,absent,notCued,noise,NA,NA_4,1,6471
Fs51,1,17,noise,absent,notCued,noise,NA,NA_3,0,6430
Fs51,1,18,noise,absent,notCued,noise,NA,NA_2,1,6440
Fs51,1,19,incongruent,absent,label,mailbox,NA,NA_1,1,6609
Fs51,1,20,noise,present,notCued,noise,mailbox,mailbox_1,0,6670
Fs51,1,21,congruent,present,label,iceskates,iceskates,iceskates_1,0,6607
Fs51,1,22,congruent,present,label,pillow,pillow,pillow_1,1,7019
Fs51,1,23,noise,absent,notCued,noise,NA,NA_1,1,6605
Fs51,1,24,noise,absent,notCued,noise,NA,NA_3,1,7479
Fs51,1,25,congruent,present,label,laudrybasket,laudrybasket,laudrybasket_4,0,6636
Fs51,1,26,noise,absent,notCued,noise,NA,NA_4,1,6588
Fs51,1,27,noise,absent,notCued,noise,NA,NA_3,1,6649
Fs51,1,28,incongruent,absent,label,fireplace,NA,NA_4,0,6889
Fs51,1,29,noise,present,notCued,noise,typewriter,typewriter_1,0,6573
Fs51,1,30,incongruent,absent,label,eyeglasses,NA,NA_2,1,6540
Fs51,1,31,congruent,present,label,swissarmyknife,swissarmyknife,swissarmyknife_1,0,6517
Fs51,1,32,noise,absent,notCued,noise,NA,NA_4,1,6542
Fs51,1,33,incongruent,absent,label,eyeglasses,NA,NA_3,1,6504
Fs51,1,34,noise,absent,notCued,noise,NA,NA_1,1,6648
Fs51,1,35,congruent,present,label,wheelchair,wheelchair,wheelchair_2,0,6552
Fs51,1,36,congruent,present,label,coffeemaker,coffeemaker,coffeemaker_2,0,6493
Fs51,1,37,congruent,present,label,microphone,microphone,microphone_4,0,6453
Fs51,1,38,incongruent,absent,label,coffeemaker,NA,NA_1,1,6471
Fs51,1,39,noise,present,notCued,noise,soapdispenser,soapdispenser_2,0,6673
Fs51,1,40,incongruent,absent,label,cooler,NA,NA_1,1,6575
Fs51,1,41,noise,absent,notCued,noise,NA,NA_2,0,6616
Fs51,1,42,noise,absent,notCued,noise,NA,NA_1,0,6909
Fs51,1,43,noise,present,notCued,noise,musicstand,musicstand_1,0,6549
Fs51,1,44,noise,present,notCued,noise,typewriter,typewriter_3,0,6496
Fs51,1,45,noise,absent,notCued,noise,NA,NA_4,1,6536
Fs51,1,46,noise,absent,notCued,noise,NA,NA_2,1,6552
Fs51,1,47,congruent,present,label,doorknocker,doorknocker,doorknocker_4,0,6724
Fs51,1,48,noise,present,notCued,noise,sink,sink_4,0,6422
Fs51,1,49,incongruent,absent,label,birdhouse,NA,NA_4,1,6620
Fs51,1,50,congruent,present,label,corset,corset,corset_3,0,6513
Fs51,1,51,incongruent,absent,label,perfumebottle,NA,NA_4,0,6601
Fs51,1,52,congruent,present,label,fireplace,fireplace,fireplace_3,0,6461
Fs51,1,53,noise,present,notCued,noise,houseplant,houseplant_3,0,6544
Fs51,1,54,incongruent,absent,label,birdcage,NA,NA_4,1,6559
Fs51,1,55,noise,present,notCued,noise,highchair,highchair_4,0,3789
Fs51,1,56,incongruent,absent,label,birdhouse,NA,NA_1,1,6456
Fs51,1,57,congruent,present,label,anchor,anchor,anchor_4,0,6441
Fs51,1,58,incongruent,present,label,doorknocker,sewingmachine,sewingmachine_2,0,6422
Fs51,1,59,noise,present,notCued,noise,laptop,laptop_4,0,2525
Fs51,1,60,noise,present,notCued,noise,robot,robot_1,0,6489
Fs51,1,61,noise,absent,notCued,noise,NA,NA_2,1,6536
Fs51,1,62,congruent,present,label,swissarmyknife,swissarmyknife,swissarmyknife_4,0,6372
Fs51,1,63,noise,present,notCued,noise,birdcage,birdcage_2,0,6414
Fs51,1,64,congruent,present,label,feather,feather,feather_1,0,6386
Fs51,1,65,noise,absent,notCued,noise,NA,NA_3,1,3157
Fs51,1,66,noise,present,notCued,noise,houseplant,houseplant_4,0,6539
Fs51,1,67,incongruent,absent,label,anchor,NA,NA_2,1,7342
Fs51,1,68,incongruent,absent,label,birdcage,NA,NA_4,1,6686
Fs51,1,69,incongruent,absent,label,corkscrew,NA,NA_1,0,6970
Fs51,1,70,noise,absent,notCued,noise,NA,NA_1,1,3368
Fs51,1,71,incongruent,absent,label,leaf,NA,NA_3,0,6772
Fs51,1,72,incongruent,absent,label,corkscrew,NA,NA_3,0,6448
Fs51,1,73,congruent,present,label,mailbox,mailbox,mailbox_3,0,6610
Fs51,1,74,incongruent,absent,label,sewingmachine,NA,NA_1,1,6442
Fs51,1,75,noise,absent,notCued,noise,NA,NA_2,1,6733
Fs51,1,76,noise,absent,notCued,noise,NA,NA_1,1,6525
Fs51,1,77,noise,present,notCued,noise,accordion,accordion_3,1,6538
Fs51,1,78,incongruent,absent,label,fireplace,NA,NA_4,1,6778
Fs51,1,79,congruent,present,label,tupperwarecontainer,tupperwarecontainer,tupperwarecontainer_2,0,6359
Fs51,1,80,incongruent,absent,label,doorknocker,NA,NA_1,1,6819
Fs51,1,81,congruent,present,label,coffeemaker,coffeemaker,coffeemaker_3,0,6483
Fs51,1,82,congruent,present,label,coffeemaker,coffeemaker,coffeemaker_1,0,6782
Fs51,1,83,noise,present,notCued,noise,mailbox,mailbox_4,0,6620
Fs51,1,84,congruent,present,label,cashregister,cashregister,cashregister_2,0,6391
Fs51,1,85,congruent,present,label,toaster,toaster,toaster_4,0,6563
Fs51,1,86,noise,present,notCued,noise,vacuumcleaner,vacuumcleaner_2,0,4423
Fs51,1,87,noise,absent,notCued,noise,NA,NA_4,1,6413
Fs51,1,88,noise,present,notCued,noise,birdhouse,birdhouse_4,0,6388
Fs51,1,89,congruent,present,label,tractor,tractor,tractor_2,0,5365
Fs51,1,90,congruent,present,label,corset,corset,corset_1,0,6237
Fs51,1,91,incongruent,absent,label,laptop,NA,NA_3,1,6408
Fs51,1,92,congruent,present,label,laptop,laptop,laptop_1,0,6395
Fs51,1,93,noise,absent,notCued,noise,NA,NA_2,1,6462
Fs51,1,94,congruent,present,label,birdcage,birdcage,birdcage_4,0,6399
Fs51,1,95,incongruent,absent,label,fireplace,NA,NA_4,1,6427
Fs51,1,96,congruent,present,label,sink,sink,sink_1,0,6397
Fs51,1,97,incongruent,present,label,sewingmachine,iceskates,iceskates_4,0,5581
Fs51,1,98,incongruent,absent,label,sewingmachine,NA,NA_1,1,6954
Fs51,1,99,congruent,present,label,tractor,tractor,tractor_1,0,6375
Fs51,1,100,noise,present,notCued,noise,coffeemaker,coffeemaker_4,0,6486
Fs51,1,101,noise,absent,notCued,noise,NA,NA_3,1,6662
Fs51,1,102,incongruent,absent,label,soapdispenser,NA,NA_2,1,6438
Fs51,1,103,noise,absent,notCued,noise,NA,NA_3,1,6494
Fs51,1,104,congruent,present,label,soapdispenser,soapdispenser,soapdispenser_3,0,6508
Fs51,1,105,noise,absent,notCued,noise,NA,NA_3,0,6583
Fs51,1,106,incongruent,absent,label,mailbox,NA,NA_2,1,6605
Fs51,1,107,congruent,present,label,toaster,toaster,toaster_2,0,6610
Fs51,1,108,congruent,present,label,fireplace,fireplace,fireplace_1,0,6520
Fs51,1,109,incongruent,absent,label,leaf,NA,NA_4,1,7149
Fs51,1,110,noise,absent,notCued,noise,NA,NA_4,1,6426
Fs51,1,111,incongruent,absent,label,soapdispenser,NA,NA_1,1,6548
Fs51,1,112,noise,absent,notCued,noise,NA,NA_3,1,6520
Fs51,1,113,incongruent,present,label,kettle,musicstand,musicstand_3,0,6443
Fs51,1,114,noise,present,notCued,noise,birdcage,birdcage_1,0,6510
Fs51,1,115,noise,present,notCued,noise,microphone,microphone_3,0,6513
Fs51,1,116,noise,absent,notCued,noise,NA,NA_2,0,6412
Fs51,1,117,incongruent,present,label,laptop,corkscrew,corkscrew_1,0,6463
Fs51,1,118,incongruent,present,label,accordion,crown,crown_1,1,6717
Fs51,1,119,congruent,present,label,wheelbarrow,wheelbarrow,wheelbarrow_2,0,6570
Fs51,1,120,congruent,present,label,coffin,coffin,coffin_2,0,6488
Fs51,1,121,noise,present,notCued,noise,laudrybasket,laudrybasket_2,0,6408
Fs51,1,122,incongruent,absent,label,birdcage,NA,NA_2,1,6764
Fs51,1,123,noise,present,notCued,noise,corset,corset_2,0,6425
Fs51,1,124,noise,absent,notCued,noise,NA,NA_3,1,6509
Fs51,1,125,incongruent,absent,label,cooler,NA,NA_4,1,6450
Fs51,1,126,noise,present,notCued,noise,houseplant,houseplant_1,0,6485
Fs51,1,127,incongruent,absent,label,tractor,NA,NA_1,1,6523
Fs51,1,128,incongruent,absent,label,vacuumcleaner,NA,NA_1,1,6373
Fs51,1,129,incongruent,absent,label,laudrybasket,NA,NA_3,1,5894
Fs51,1,130,noise,present,notCued,noise,leaf,leaf_1,0,3266
Fs51,1,131,noise,absent,notCued,noise,NA,NA_2,1,5791
Fs51,1,132,congruent,present,label,cooler,cooler,cooler_4,1,5581
Fs51,1,133,noise,present,notCued,noise,anchor,anchor_1,0,4211
Fs51,1,134,congruent,present,label,sewingmachine,sewingmachine,sewingmachine_1,0,4106
Fs51,1,135,noise,absent,notCued,noise,NA,NA_2,1,4524
Fs51,1,136,incongruent,absent,label,crown,NA,NA_1,1,6689
Fs51,1,137,noise,absent,notCued,noise,NA,NA_2,1,6070
Fs51,1,138,noise,present,notCued,noise,pillow,pillow_3,0,5689
Fs51,1,139,incongruent,absent,label,vacuumcleaner,NA,NA_2,0,6010
Fs51,1,140,noise,present,notCued,noise,vacuumcleaner,vacuumcleaner_3,0,4632
Fs51,1,141,noise,present,notCued,noise,coffin,coffin_3,1,4526
Fs51,1,142,noise,absent,notCued,noise,NA,NA_4,1,5059
Fs51,1,143,congruent,present,label,eyeglasses,eyeglasses,eyeglasses_4,0,4006
Fs51,1,144,noise,present,notCued,noise,houseplant,houseplant_2,0,2001
Fs51,1,145,noise,present,notCued,noise,sewingmachine,sewingmachine_3,0,3581
Fs51,1,146,incongruent,absent,label,wheelchair,NA,NA_3,1,5049
Fs51,1,147,noise,absent,notCued,noise,NA,NA_1,1,3160
Fs51,1,148,incongruent,absent,label,robot,NA,NA_3,1,6437
Fs51,1,149,congruent,present,label,eyeglasses,eyeglasses,eyeglasses_1,1,3792
Fs51,1,150,noise,absent,notCued,noise,NA,NA_2,1,7023
Fs51,1,151,noise,absent,notCued,noise,NA,NA_3,1,3158
Fs51,1,152,noise,present,notCued,noise,microphone,microphone_2,0,2951
Fs51,1,153,incongruent,absent,label,wheelbarrow,NA,NA_3,1,4111
Fs51,1,154,noise,present,notCued,noise,wheelbarrow,wheelbarrow_3,0,5687
Fs51,1,155,incongruent,present,label,mailbox,feather,feather_2,1,4107
Fs51,1,156,incongruent,absent,label,toaster,NA,NA_4,1,3894
Fs51,1,157,incongruent,absent,label,accordion,NA,NA_2,1,3367
Fs51,1,158,noise,present,notCued,noise,feather,feather_3,1,3473
Fs51,1,159,congruent,present,label,coffin,coffin,coffin_4,1,3790
Fs51,1,160,incongruent,absent,label,toaster,NA,NA_3,1,4002
Fs51,1,161,incongruent,absent,label,wheelbarrow,NA,NA_2,1,4105
Fs51,1,162,noise,absent,notCued,noise,NA,NA_3,1,2316
Fs51,1,163,congruent,present,label,toaster,toaster,toaster_3,1,3684
Fs51,1,164,noise,present,notCued,noise,crown,crown_4,1,1793
Fs51,1,165,incongruent,absent,label,typewriter,NA,NA_2,1,3894
Fs51,1,166,noise,present,notCued,noise,sink,sink_2,1,2633
Fs51,1,167,incongruent,absent,label,wheelchair,NA,NA_2,1,3371
Fs51,1,168,noise,absent,notCued,noise,NA,NA_2,1,2844
Fs51,1,169,noise,absent,notCued,noise,NA,NA_1,1,3055
Fs51,1,170,incongruent,absent,label,corkscrew,NA,NA_4,1,3790
Fs51,1,171,incongruent,absent,label,cashregister,NA,NA_2,1,3161
Fs51,1,172,noise,present,notCued,noise,accordion,accordion_2,1,3264
Fs51,1,173,incongruent,absent,label,corset,NA,NA_2,1,3582
Fs51,1,174,congruent,present,label,doorknocker,doorknocker,doorknocker_1,1,3266
Fs51,1,175,noise,present,notCued,noise,cashregister,cashregister_1,1,3895
Fs51,1,176,noise,present,notCued,noise,fireplace,fireplace_4,1,2215
Fs51,1,177,noise,absent,notCued,noise,NA,NA_3,1,3263
Fs51,1,178,noise,present,notCued,noise,pillow,pillow_2,1,2528
Fs51,1,179,noise,absent,notCued,noise,NA,NA_2,1,2843
Fs51,1,180,incongruent,absent,label,mailbox,NA,NA_4,1,2633
Fs51,1,181,incongruent,present,label,kettle,anchor,anchor_2,1,6004
Fs51,1,182,noise,absent,notCued,noise,NA,NA_4,1,2318
Fs51,1,183,noise,present,notCued,noise,sewingmachine,sewingmachine_4,1,2635
Fs51,1,184,congruent,present,label,cooler,cooler,cooler_2,1,1900
Fs51,1,185,incongruent,absent,label,accordion,NA,NA_3,1,1899
Fs51,1,186,congruent,present,label,strainer,strainer,strainer_2,1,4844
Fs51,1,187,congruent,present,label,iceskates,iceskates,iceskates_3,1,2106
Fs51,1,188,noise,present,notCued,noise,doorknocker,doorknocker_2,1,2104
Fs51,1,189,incongruent,absent,label,tractor,NA,NA_4,1,4740
Fs51,1,190,incongruent,absent,label,strainer,NA,NA_4,1,2737
Fs51,1,191,congruent,present,label,swissarmyknife,swissarmyknife,swissarmyknife_2,1,2528
Fs51,1,192,noise,absent,notCued,noise,NA,NA_3,1,2951
Fs51,1,193,incongruent,present,label,robot,perfumebottle,perfumebottle_4,1,3475
Fs51,1,194,congruent,present,label,corkscrew,corkscrew,corkscrew_2,1,2634
Fs51,1,195,noise,absent,notCued,noise,NA,NA_4,1,2844
Fs51,1,196,noise,present,notCued,noise,leaf,leaf_4,1,2843
Fs51,1,197,noise,absent,notCued,noise,NA,NA_4,1,2530
Fs51,1,198,noise,present,notCued,noise,wheelchair,wheelchair_3,1,4106
Fs51,1,199,incongruent,present,label,sink,swissarmyknife,swissarmyknife_3,1,5050
Fs51,1,200,noise,absent,notCued,noise,NA,NA_3,1,3053
Fs51,1,201,noise,absent,notCued,noise,NA,NA_4,1,2106
Fs51,1,202,noise,present,notCued,noise,toaster,toaster_1,1,1687
Fs51,1,203,congruent,present,label,musicstand,musicstand,musicstand_2,0,2423
Fs51,1,204,noise,absent,notCued,noise,NA,NA_2,1,1999
Fs51,1,205,congruent,present,label,doorknocker,doorknocker,doorknocker_3,0,4213
Fs51,1,206,incongruent,present,label,laudrybasket,leaf,leaf_2,0,3578
Fs51,1,207,noise,absent,notCued,noise,NA,NA_4,1,2001
Fs51,1,208,noise,present,notCued,noise,strainer,strainer_4,0,3262
Fs51,1,209,noise,present,notCued,noise,tractor,tractor_4,1,1684
Fs51,1,210,noise,absent,notCued,noise,NA,NA_3,1,1791
Fs51,1,211,noise,absent,notCued,noise,NA,NA_1,1,2109
Fs51,1,212,noise,absent,notCued,noise,NA,NA_4,1,2104
Fs51,1,213,noise,absent,notCued,noise,NA,NA_2,1,2947
Fs51,1,214,noise,absent,notCued,noise,NA,NA_3,1,2950
Fs51,1,215,incongruent,absent,label,doorknocker,NA,NA_3,1,3056
Fs51,1,216,incongruent,absent,label,vacuumcleaner,NA,NA_3,1,3055
Fs51,1,217,noise,absent,notCued,noise,NA,NA_1,1,3160
Fs51,1,218,noise,absent,notCued,noise,NA,NA_4,1,4106
Fs51,1,219,congruent,present,label,crown,crown,crown_2,1,1264
Fs51,1,220,noise,present,notCued,noise,musicstand,musicstand_4,0,3680
Fs51,1,221,noise,absent,notCued,noise,NA,NA_3,1,2631
Fs51,1,222,noise,present,notCued,noise,wheelchair,wheelchair_1,0,6200
Fs51,1,223,congruent,present,label,leaf,leaf,leaf_3,0,3474
Fs51,1,224,noise,present,notCued,noise,microphone,microphone_1,0,6690
Fs51,1,225,noise,present,notCued,noise,sink,sink_3,1,5897
Fs51,1,226,noise,present,notCued,noise,kettle,kettle_3,1,7074
Fs51,1,227,noise,absent,notCued,noise,NA,NA_2,1,6208
Fs51,1,228,noise,present,notCued,noise,highchair,highchair_3,1,4946
Fs51,1,229,noise,present,notCued,noise,soapdispenser,soapdispenser_4,1,6778
Fs51,1,230,noise,present,notCued,noise,wheelbarrow,wheelbarrow_1,1,1685
Fs51,1,231,noise,absent,notCued,noise,NA,NA_1,1,4423
Fs51,1,232,noise,absent,notCued,noise,NA,NA_3,1,3160
Fs51,1,233,incongruent,present,label,anchor,birdhouse,birdhouse_2,0,6521
Fs51,1,234,noise,present,notCued,noise,birdhouse,birdhouse_1,0,3268
Fs51,1,235,noise,present,notCued,noise,perfumebottle,perfumebottle_1,0,3472
Fs51,1,236,congruent,present,label,tupperwarecontainer,tupperwarecontainer,tupperwarecontainer_3,1,5898
Fs51,1,237,congruent,present,label,eyeglasses,eyeglasses,eyeglasses_3,0,6862
Fs51,1,238,noise,absent,notCued,noise,NA,NA_1,1,3158
Fs51,1,239,incongruent,present,label,iceskates,laptop,laptop_3,1,6082
Fs51,1,240,congruent,present,label,robot,robot,robot_3,0,6001
Fs51,1,241,noise,absent,notCued,noise,NA,NA_2,1,3366
Fs51,1,242,noise,present,notCued,noise,robot,robot_2,1,5161
Fs51,1,243,noise,absent,notCued,noise,NA,NA_3,1,3264
Fs51,1,244,noise,present,notCued,noise,birdcage,birdcage_3,1,3164
Fs51,1,245,incongruent,absent,label,kettle,NA,NA_2,1,4842
Fs51,1,246,incongruent,absent,label,swissarmyknife,NA,NA_2,1,4001.0000000000005
Fs51,1,247,congruent,present,label,typewriter,typewriter,typewriter_4,1,2210
Fs51,1,248,incongruent,absent,label,coffin,NA,NA_4,1,3685
Fs51,1,249,congruent,present,label,accordion,accordion,accordion_1,1,2108
Fs51,1,250,noise,present,notCued,noise,perfumebottle,perfumebottle_3,1,3055
Fs51,1,251,noise,absent,notCued,noise,NA,NA_1,1,3054
Fs51,1,252,incongruent,present,label,musicstand,soapdispenser,soapdispenser_1,0,6535
Fs51,1,253,noise,absent,notCued,noise,NA,NA_1,1,2317
Fs51,1,254,noise,absent,notCued,noise,NA,NA_3,1,3159
Fs51,1,255,incongruent,absent,label,corset,NA,NA_4,1,3475
Fs51,1,256,noise,absent,notCued,noise,NA,NA_4,1,3368
Fs51,1,257,incongruent,present,label,leaf,tractor,tractor_3,1,6578
Fs51,1,258,incongruent,absent,label,birdcage,NA,NA_3,1,4737
Fs51,1,259,noise,present,notCued,noise,eyeglasses,eyeglasses_2,1,4212
Fs51,1,260,congruent,present,label,laudrybasket,laudrybasket,laudrybasket_1,1,2636
Fs51,1,261,incongruent,absent,label,feather,NA,NA_1,1,4529
Fs51,1,262,noise,absent,notCued,noise,NA,NA_1,1,3372
Fs51,1,263,incongruent,absent,label,eyeglasses,NA,NA_4,1,3372
Fs51,1,264,noise,absent,notCued,noise,NA,NA_1,1,3370
Fs51,1,265,congruent,present,label,corkscrew,corkscrew,corkscrew_4,0,7104
Fs51,1,266,noise,present,notCued,noise,coffin,coffin_1,1,3374
Fs51,1,267,noise,absent,notCued,noise,NA,NA_1,1,3579
Fs51,1,268,noise,present,notCued,noise,laudrybasket,laudrybasket_3,1,2108
Fs51,1,269,incongruent,absent,label,microphone,NA,NA_1,1,4842
Fs51,1,270,incongruent,absent,label,swissarmyknife,NA,NA_3,1,2423
Fs51,1,271,congruent,present,label,vacuumcleaner,vacuumcleaner,vacuumcleaner_1,1,5894
Fs51,1,272,incongruent,absent,label,houseplant,NA,NA_4,1,3049
Fs51,1,273,noise,present,notCued,noise,anchor,anchor_3,1,5370
Fs51,1,274,congruent,present,label,cashregister,cashregister,cashregister_4,1,1794
Fs51,1,275,incongruent,absent,label,doorknocker,NA,NA_2,1,4741
Fs51,1,276,noise,absent,notCued,noise,NA,NA_1,1,3162
Fs51,1,277,congruent,present,label,accordion,accordion,accordion_4,0,6601
Fs51,1,278,incongruent,absent,label,microphone,NA,NA_4,1,3156
Fs51,1,279,noise,absent,notCued,noise,NA,NA_2,1,2735
Fs51,1,280,noise,present,notCued,noise,cashregister,cashregister_3,1,2634
Fs51,1,281,noise,present,notCued,noise,kettle,kettle_1,1,3893
Fs51,1,282,noise,absent,notCued,noise,NA,NA_1,1,3786
Fs51,1,283,noise,present,notCued,noise,cooler,cooler_1,1,1478
Fs51,1,284,congruent,present,label,iceskates,iceskates,iceskates_2,1,3370
Fs51,1,285,noise,absent,notCued,noise,NA,NA_4,1,4630
Fs51,1,286,noise,absent,notCued,noise,NA,NA_4,1,3056
Fs51,1,287,noise,present,notCued,noise,highchair,highchair_1,1,4006.9999999999995
Fs51,1,288,incongruent,absent,label,laptop,NA,NA_1,1,3584
Fs51,1,289,congruent,present,label,fireplace,fireplace,fireplace_2,1,3056
Fs51,1,290,congruent,present,label,robot,robot,robot_4,1,2528
Fs51,1,291,noise,absent,notCued,noise,NA,NA_4,1,2629
Fs51,1,292,noise,absent,notCued,noise,NA,NA_3,1,3580
Fs51,1,293,noise,absent,notCued,noise,NA,NA_3,1,4526
Fs51,1,294,noise,absent,notCued,noise,NA,NA_1,1,3162
Fs51,1,295,incongruent,absent,label,swissarmyknife,NA,NA_4,1,3269
Fs51,1,296,noise,present,notCued,noise,birdhouse,birdhouse_3,0,4315
Fs51,1,297,incongruent,absent,label,perfumebottle,NA,NA_2,1,2948
Fs51,1,298,incongruent,absent,label,pillow,NA,NA_1,1,3892
Fs51,1,299,noise,present,notCued,noise,vacuumcleaner,vacuumcleaner_4,1,6111
Fs51,1,300,incongruent,absent,label,tupperwarecontainer,NA,NA_3,1,3897
Fs51,1,301,noise,absent,notCued,noise,NA,NA_3,1,6268
Fs51,1,302,noise,present,notCued,noise,cooler,cooler_3,1,1581
Fs51,1,303,incongruent,present,label,laudrybasket,pillow,pillow_4,1,3897
Fs51,1,304,incongruent,absent,label,cooler,NA,NA_2,1,2733
Fs51,1,305,congruent,present,label,perfumebottle,perfumebottle,perfumebottle_2,1,3370
Fs51,1,306,incongruent,present,label,pillow,crown,crown_3,1,1789
Fs51,1,307,incongruent,absent,label,swissarmyknife,NA,NA_1,1,3901
Fs51,1,308,noise,absent,notCued,noise,NA,NA_3,1,3896
Fs51,1,309,congruent,present,label,kettle,kettle,kettle_2,1,1582
Fs51,1,310,noise,present,notCued,noise,mailbox,mailbox_2,1,3582
Fs51,1,311,noise,absent,notCued,noise,NA,NA_1,1,2631
Fs51,1,312,noise,present,notCued,noise,tupperwarecontainer,tupperwarecontainer_4,1,6104
Fs51,1,313,noise,absent,notCued,noise,NA,NA_2,1,2633
Fs51,1,314,noise,absent,notCued,noise,NA,NA_4,1,2737
Fs51,1,315,congruent,present,label,strainer,strainer,strainer_3,1,2107
Fs51,1,316,congruent,present,label,wheelchair,wheelchair,wheelchair_4,1,1476
Fs51,1,317,congruent,present,label,typewriter,typewriter,typewriter_2,1,2949
Fs51,1,318,noise,present,notCued,noise,tupperwarecontainer,tupperwarecontainer_1,1,1792
Fs51,1,319,noise,absent,notCued,noise,NA,NA_1,1,4107
Fs51,1,320,incongruent,absent,label,feather,NA,NA_4,1,4103
Fs510,1,1,incongruent,absent,label,doorknocker,NA,NA_3,1,4644
Fs510,1,2,congruent,present,label,tupperwarecontainer,tupperwarecontainer,tupperwarecontainer_2,1,1690
Fs510,1,3,congruent,present,label,highchair,highchair,highchair_1,1,2430
Fs510,1,4,congruent,present,label,mailbox,mailbox,mailbox_4,1,1056
Fs510,1,5,noise,present,notCued,noise,laudrybasket,laudrybasket_3,1,2112
Fs510,1,6,noise,present,notCued,noise,typewriter,typewriter_3,1,2112
Fs510,1,7,incongruent,absent,label,coffin,NA,NA_4,0,2851
Fs510,1,8,noise,present,notCued,noise,fireplace,fireplace_2,1,2114
Fs510,1,9,noise,absent,notCued,noise,NA,NA_2,0,1056
Fs510,1,10,noise,absent,notCued,noise,NA,NA_2,1,2538
Fs510,1,11,noise,absent,notCued,noise,NA,NA_4,1,2221
Fs510,1,12,noise,absent,notCued,noise,NA,NA_1,1,2326
Fs510,1,13,congruent,present,label,coffin,coffin,coffin_3,1,1901
Fs510,1,14,noise,present,notCued,noise,tractor,tractor_4,0,4860
Fs510,1,15,congruent,present,label,soapdispenser,soapdispenser,soapdispenser_1,1,4752
Fs510,1,16,noise,absent,notCued,noise,NA,NA_2,1,1797
Fs510,1,17,incongruent,absent,label,toaster,NA,NA_1,1,2329
Fs510,1,18,incongruent,present,label,sewingmachine,tractor,tractor_3,0,4649
Fs510,1,19,incongruent,absent,label,wheelchair,NA,NA_4,1,2849
Fs510,1,20,noise,present,notCued,noise,wheelbarrow,wheelbarrow_1,0,1798
Fs510,1,21,noise,absent,notCued,noise,NA,NA_2,1,2536
Fs510,1,22,incongruent,absent,label,vacuumcleaner,NA,NA_4,1,2111
Fs510,1,23,incongruent,present,label,crown,pillow,pillow_4,0,3690
Fs510,1,24,noise,absent,notCued,noise,NA,NA_4,1,2956
Fs510,1,25,noise,absent,notCued,noise,NA,NA_4,1,2956
Fs510,1,26,incongruent,absent,label,sewingmachine,NA,NA_4,1,1585
Fs510,1,27,noise,absent,notCued,noise,NA,NA_1,1,2961
Fs510,1,28,incongruent,absent,label,corset,NA,NA_2,1,2745
Fs510,1,29,incongruent,absent,label,microphone,NA,NA_2,1,2641
Fs510,1,30,incongruent,absent,label,feather,NA,NA_3,1,2538
Fs510,1,31,incongruent,absent,label,swissarmyknife,NA,NA_2,1,3166
Fs510,1,32,incongruent,absent,label,highchair,NA,NA_3,1,4120
Fs510,1,33,incongruent,absent,label,coffeemaker,NA,NA_3,1,2850
Fs510,1,34,congruent,present,label,microphone,microphone,microphone_1,1,1162
Fs510,1,35,noise,present,notCued,noise,leaf,leaf_2,0,3058
Fs510,1,36,noise,absent,notCued,noise,NA,NA_2,1,1901
Fs510,1,37,noise,absent,notCued,noise,NA,NA_3,1,2111
Fs510,1,38,congruent,present,label,swissarmyknife,swissarmyknife,swissarmyknife_4,1,1585
Fs510,1,39,incongruent,present,label,coffin,swissarmyknife,swissarmyknife_3,1,4118
Fs510,1,40,noise,present,notCued,noise,leaf,leaf_4,1,2323
Fs510,1,41,incongruent,absent,label,mailbox,NA,NA_3,1,2852
Fs510,1,42,noise,present,notCued,noise,doorknocker,doorknocker_2,1,3697
Fs510,1,43,incongruent,absent,label,strainer,NA,NA_4,1,2008
Fs510,1,44,noise,present,notCued,noise,anchor,anchor_4,1,2115
Fs510,1,45,congruent,present,label,cashregister,cashregister,cashregister_3,1,3592
Fs510,1,46,congruent,present,label,corkscrew,corkscrew,corkscrew_2,1,1161
Fs510,1,47,congruent,present,label,microphone,microphone,microphone_2,1,2643
Fs510,1,48,noise,present,notCued,noise,accordion,accordion_1,1,2323
Fs510,1,49,congruent,present,label,mailbox,mailbox,mailbox_2,1,1373
Fs510,1,50,congruent,present,label,laudrybasket,laudrybasket,laudrybasket_4,1,1795
Fs510,1,51,noise,absent,notCued,noise,NA,NA_1,1,2431
Fs510,1,52,noise,present,notCued,noise,coffeemaker,coffeemaker_2,1,1690
Fs510,1,53,congruent,present,label,coffeemaker,coffeemaker,coffeemaker_1,1,2005
Fs510,1,54,incongruent,absent,label,tupperwarecontainer,NA,NA_1,1,2637
Fs510,1,55,incongruent,absent,label,crown,NA,NA_2,1,3482
Fs510,1,56,noise,present,notCued,noise,corkscrew,corkscrew_4,0,4538
Fs510,1,57,congruent,present,label,perfumebottle,perfumebottle,perfumebottle_4,1,1901
Fs510,1,58,noise,absent,notCued,noise,NA,NA_1,1,2005.9999999999998
Fs510,1,59,incongruent,absent,label,eyeglasses,NA,NA_1,1,2003
Fs510,1,60,noise,present,notCued,noise,toaster,toaster_2,1,2114
Fs510,1,61,noise,absent,notCued,noise,NA,NA_3,1,2742
Fs510,1,62,noise,present,notCued,noise,houseplant,houseplant_4,1,2534
Fs510,1,63,incongruent,absent,label,sewingmachine,NA,NA_3,1,2851
Fs510,1,64,incongruent,absent,label,houseplant,NA,NA_4,1,2111
Fs510,1,65,noise,present,notCued,noise,iceskates,iceskates_3,1,1057
Fs510,1,66,congruent,present,label,strainer,strainer,strainer_2,1,3277
Fs510,1,67,incongruent,absent,label,strainer,NA,NA_3,1,2114
Fs510,1,68,congruent,present,label,toaster,toaster,toaster_4,1,1270
Fs510,1,69,noise,present,notCued,noise,coffeemaker,coffeemaker_3,1,1690
Fs510,1,70,noise,absent,notCued,noise,NA,NA_1,1,3377
Fs510,1,71,noise,present,notCued,noise,musicstand,musicstand_3,1,2428
Fs510,1,72,incongruent,absent,label,doorknocker,NA,NA_4,1,3695
Fs510,1,73,noise,absent,notCued,noise,NA,NA_1,1,2112
Fs510,1,74,incongruent,absent,label,wheelchair,NA,NA_1,1,2427
Fs510,1,75,incongruent,absent,label,tupperwarecontainer,NA,NA_4,1,2958
Fs510,1,76,congruent,present,label,tractor,tractor,tractor_1,1,846
Fs510,1,77,noise,absent,notCued,noise,NA,NA_4,1,3383
Fs510,1,78,noise,absent,notCued,noise,NA,NA_2,1,3487
Fs510,1,79,noise,absent,notCued,noise,NA,NA_1,1,2111
Fs510,1,80,noise,absent,notCued,noise,NA,NA_3,1,1900
Fs510,1,81,incongruent,absent,label,soapdispenser,NA,NA_1,1,1162
Fs510,1,82,noise,present,notCued,noise,doorknocker,doorknocker_4,1,1270
Fs510,1,83,congruent,present,label,anchor,anchor,anchor_2,1,3804
Fs510,1,84,incongruent,absent,label,doorknocker,NA,NA_1,1,1161
Fs510,1,85,noise,present,notCued,noise,birdhouse,birdhouse_3,1,1479
Fs510,1,86,noise,absent,notCued,noise,NA,NA_3,1,1373
Fs510,1,87,congruent,present,label,musicstand,musicstand,musicstand_1,1,953
Fs510,1,88,noise,present,notCued,noise,feather,feather_3,1,1582
Fs510,1,89,noise,present,notCued,noise,crown,crown_2,1,4326
Fs510,1,90,congruent,present,label,leaf,leaf,leaf_1,0,1690
Fs510,1,91,noise,present,notCued,noise,corset,corset_1,1,1267
Fs510,1,92,noise,absent,notCued,noise,NA,NA_3,1,1374
Fs510,1,93,noise,present,notCued,noise,swissarmyknife,swissarmyknife_2,1,2324
Fs510,1,94,incongruent,absent,label,coffin,NA,NA_4,1,1162
Fs510,1,95,congruent,present,label,sewingmachine,sewingmachine,sewingmachine_4,1,2749
Fs510,1,96,incongruent,absent,label,toaster,NA,NA_2,1,2324
Fs510,1,97,congruent,present,label,swissarmyknife,swissarmyknife,swissarmyknife_1,1,1797
Fs510,1,98,noise,absent,notCued,noise,NA,NA_3,1,1372
Fs510,1,99,congruent,present,label,fireplace,fireplace,fireplace_4,1,2005.9999999999998
Fs510,1,100,incongruent,absent,label,pillow,NA,NA_4,1,1795
Fs510,1,101,noise,present,notCued,noise,anchor,anchor_3,1,2116
Fs510,1,102,incongruent,present,label,robot,birdcage,birdcage_3,1,212
Fs510,1,103,noise,present,notCued,noise,eyeglasses,eyeglasses_2,1,2114
Fs510,1,104,noise,present,notCued,noise,perfumebottle,perfumebottle_3,1,1373
Fs510,1,105,noise,absent,notCued,noise,NA,NA_4,1,1058
Fs510,1,106,noise,absent,notCued,noise,NA,NA_1,1,1161
Fs510,1,107,noise,present,notCued,noise,sewingmachine,sewingmachine_3,1,1163
Fs510,1,108,noise,present,notCued,noise,houseplant,houseplant_3,0,1376
Fs510,1,109,congruent,present,label,highchair,highchair,highchair_2,1,1692
Fs510,1,110,incongruent,absent,label,feather,NA,NA_4,1,1161
Fs510,1,111,congruent,present,label,crown,crown,crown_3,1,2009.9999999999998
Fs510,1,112,noise,absent,notCued,noise,NA,NA_3,1,1056
Fs510,1,113,noise,present,notCued,noise,laudrybasket,laudrybasket_2,1,1056
Fs510,1,114,congruent,present,label,cooler,cooler,cooler_4,0,1584
Fs510,1,115,congruent,present,label,strainer,strainer,strainer_1,0,1482
Fs510,1,116,congruent,present,label,wheelbarrow,wheelbarrow,wheelbarrow_3,1,2534
Fs510,1,117,congruent,present,label,strainer,strainer,strainer_4,0,1166
Fs510,1,118,congruent,present,label,coffin,coffin,coffin_4,0,1267
Fs510,1,119,noise,absent,notCued,noise,NA,NA_1,1,1163
Fs510,1,120,incongruent,absent,label,laptop,NA,NA_1,1,1268
Fs510,1,121,noise,present,notCued,noise,tractor,tractor_2,1,1057
Fs510,1,122,incongruent,absent,label,accordion,NA,NA_1,1,846
Fs510,1,123,noise,present,notCued,noise,typewriter,typewriter_1,1,2325
Fs510,1,124,noise,present,notCued,noise,wheelbarrow,wheelbarrow_2,1,1270
Fs510,1,125,noise,absent,notCued,noise,NA,NA_2,1,845
Fs510,1,126,noise,present,notCued,noise,perfumebottle,perfumebottle_1,0,953
Fs510,1,127,incongruent,absent,label,musicstand,NA,NA_3,1,1269
Fs510,1,128,incongruent,absent,label,typewriter,NA,NA_2,1,740
Fs510,1,129,incongruent,absent,label,highchair,NA,NA_2,1,634
Fs510,1,130,noise,absent,notCued,noise,NA,NA_2,1,739
Fs510,1,131,noise,absent,notCued,noise,NA,NA_1,1,846
Fs510,1,132,noise,present,notCued,noise,laptop,laptop_3,1,1161
Fs510,1,133,noise,absent,notCued,noise,NA,NA_4,1,2326
Fs510,1,134,incongruent,absent,label,kettle,NA,NA_3,1,635
Fs510,1,135,incongruent,absent,label,wheelbarrow,NA,NA_2,1,950
Fs510,1,136,noise,present,notCued,noise,vacuumcleaner,vacuumcleaner_1,1,3382
Fs510,1,137,noise,present,notCued,noise,doorknocker,doorknocker_3,1,2853
Fs510,1,138,noise,present,notCued,noise,tupperwarecontainer,tupperwarecontainer_3,0,1161
Fs510,1,139,incongruent,present,label,toaster,coffin,coffin_2,1,2959
Fs510,1,140,incongruent,present,label,kettle,houseplant,houseplant_2,1,2531
Fs510,1,141,congruent,present,label,microphone,microphone,microphone_4,1,1056
Fs510,1,142,incongruent,absent,label,coffin,NA,NA_3,1,846
Fs510,1,143,noise,present,notCued,noise,sewingmachine,sewingmachine_1,0,2111
Fs510,1,144,noise,present,notCued,noise,robot,robot_4,1,2116
Fs510,1,145,congruent,present,label,birdcage,birdcage,birdcage_1,1,2325
Fs510,1,146,noise,absent,notCued,noise,NA,NA_1,1,1056
Fs510,1,147,noise,present,notCued,noise,kettle,kettle_4,1,1903
Fs510,1,148,incongruent,absent,label,doorknocker,NA,NA_2,1,951
Fs510,1,149,incongruent,absent,label,coffeemaker,NA,NA_1,1,1163
Fs510,1,150,noise,absent,notCued,noise,NA,NA_2,1,1696
Fs510,1,151,congruent,present,label,birdhouse,birdhouse,birdhouse_4,1,2007.0000000000002
Fs510,1,152,noise,present,notCued,noise,soapdispenser,soapdispenser_4,0,1482
Fs510,1,153,noise,absent,notCued,noise,NA,NA_2,1,847
Fs510,1,154,noise,present,notCued,noise,musicstand,musicstand_4,0,2005.9999999999998
Fs510,1,155,congruent,present,label,vacuumcleaner,vacuumcleaner,vacuumcleaner_4,0,1163
Fs510,1,156,noise,present,notCued,noise,eyeglasses,eyeglasses_3,1,3488
Fs510,1,157,incongruent,present,label,accordion,doorknocker,doorknocker_1,1,3596
Fs510,1,158,noise,absent,notCued,noise,NA,NA_2,1,1585
Fs510,1,159,congruent,present,label,cashregister,cashregister,cashregister_2,1,1162
Fs510,1,160,congruent,present,label,birdcage,birdcage,birdcage_2,1,1162
Fs510,1,161,noise,absent,notCued,noise,NA,NA_3,1,1059
Fs510,1,162,noise,present,notCued,noise,corkscrew,corkscrew_3,1,1584
Fs510,1,163,incongruent,absent,label,laudrybasket,NA,NA_2,1,1586
Fs510,1,164,noise,absent,notCued,noise,NA,NA_1,1,7845
Fs510,1,165,congruent,present,label,tupperwarecontainer,tupperwarecontainer,tupperwarecontainer_4,1,2961
Fs510,1,166,incongruent,present,label,cooler,laptop,laptop_2,1,1270
Fs510,1,167,incongruent,absent,label,cooler,NA,NA_1,1,1268
Fs510,1,168,noise,absent,notCued,noise,NA,NA_1,1,846
Fs510,1,169,noise,present,notCued,noise,strainer,strainer_3,1,1267
Fs510,1,170,noise,absent,notCued,noise,NA,NA_4,1,847
Fs510,1,171,congruent,present,label,coffeemaker,coffeemaker,coffeemaker_4,0,2752
Fs510,1,172,noise,absent,notCued,noise,NA,NA_3,1,950
Fs510,1,173,congruent,present,label,iceskates,iceskates,iceskates_2,1,1164
Fs510,1,174,incongruent,present,label,feather,houseplant,houseplant_1,0,2643
Fs510,1,175,noise,present,notCued,noise,tupperwarecontainer,tupperwarecontainer_1,1,1373
Fs510,1,176,congruent,present,label,wheelchair,wheelchair,wheelchair_2,0,1901
Fs510,1,177,noise,present,notCued,noise,wheelbarrow,wheelbarrow_4,0,2638
Fs510,1,178,noise,absent,notCued,noise,NA,NA_2,1,2643
Fs510,1,179,congruent,present,label,iceskates,iceskates,iceskates_4,1,1803
Fs510,1,180,congruent,present,label,eyeglasses,eyeglasses,eyeglasses_1,1,1270
Fs510,1,181,congruent,present,label,cooler,cooler,cooler_2,1,2747
Fs510,1,182,noise,present,notCued,noise,corkscrew,corkscrew_1,1,1692
Fs510,1,183,noise,absent,notCued,noise,NA,NA_4,1,848
Fs510,1,184,incongruent,absent,label,swissarmyknife,NA,NA_3,1,950
Fs510,1,185,incongruent,absent,label,fireplace,NA,NA_4,1,1163
Fs510,1,186,noise,absent,notCued,noise,NA,NA_1,1,844
Fs510,1,187,incongruent,absent,label,robot,NA,NA_4,0,741
Fs510,1,188,noise,absent,notCued,noise,NA,NA_4,1,952
Fs510,1,189,noise,present,notCued,noise,crown,crown_1,1,3489
Fs510,1,190,congruent,present,label,sink,sink,sink_1,1,3383
Fs510,1,191,incongruent,absent,label,sink,NA,NA_2,1,1055
Fs510,1,192,noise,absent,notCued,noise,NA,NA_4,1,741
Fs510,1,193,noise,absent,notCued,noise,NA,NA_2,1,846
Fs510,1,194,incongruent,absent,label,houseplant,NA,NA_2,1,1162
Fs510,1,195,noise,present,notCued,noise,corset,corset_2,1,2009.9999999999998
Fs510,1,196,incongruent,absent,label,mailbox,NA,NA_2,1,740
Fs510,1,197,congruent,present,label,kettle,kettle,kettle_1,1,952
Fs510,1,198,noise,absent,notCued,noise,NA,NA_1,1,846
Fs510,1,199,congruent,present,label,eyeglasses,eyeglasses,eyeglasses_4,1,2222
Fs510,1,200,incongruent,present,label,strainer,laptop,laptop_4,1,2222
Fs510,1,201,noise,absent,notCued,noise,NA,NA_1,1,847
Fs510,1,202,incongruent,absent,label,musicstand,NA,NA_1,1,1163
Fs510,1,203,incongruent,absent,label,crown,NA,NA_1,1,740
Fs510,1,204,noise,absent,notCued,noise,NA,NA_3,1,1586
Fs510,1,205,incongruent,absent,label,anchor,NA,NA_1,1,845
Fs510,1,206,noise,absent,notCued,noise,NA,NA_4,1,738
Fs510,1,207,noise,absent,notCued,noise,NA,NA_3,1,1371
Fs510,1,208,noise,present,notCued,noise,vacuumcleaner,vacuumcleaner_2,1,1163
Fs510,1,209,incongruent,absent,label,strainer,NA,NA_3,1,2324
Fs510,1,210,incongruent,absent,label,fireplace,NA,NA_3,1,1057
Fs510,1,211,noise,present,notCued,noise,microphone,microphone_3,1,1163
Fs510,1,212,congruent,present,label,cooler,cooler,cooler_1,1,951
Fs510,1,213,congruent,present,label,pillow,pillow,pillow_3,1,3277
Fs510,1,214,incongruent,absent,label,wheelbarrow,NA,NA_4,1,1164
Fs510,1,215,noise,absent,notCued,noise,NA,NA_2,1,1690
Fs510,1,216,congruent,present,label,toaster,toaster,toaster_3,1,1482
Fs510,1,217,incongruent,absent,label,crown,NA,NA_4,1,2008
Fs510,1,218,incongruent,present,label,fireplace,cashregister,cashregister_1,1,1586
Fs510,1,219,noise,present,notCued,noise,pillow,pillow_1,1,2533
Fs510,1,220,noise,present,notCued,noise,corset,corset_3,1,2427
Fs510,1,221,noise,present,notCued,noise,coffin,coffin_1,1,952
Fs510,1,222,noise,present,notCued,noise,anchor,anchor_1,1,2004
Fs510,1,223,noise,absent,notCued,noise,NA,NA_1,1,2431
Fs510,1,224,noise,absent,notCued,noise,NA,NA_4,1,2008
Fs510,1,225,incongruent,absent,label,sink,NA,NA_3,1,1163
Fs510,1,226,noise,present,notCued,noise,feather,feather_1,1,2325
Fs510,1,227,noise,present,notCued,noise,robot,robot_3,1,952
Fs510,1,228,noise,absent,notCued,noise,NA,NA_4,1,741
Fs510,1,229,noise,absent,notCued,noise,NA,NA_4,1,635
Fs510,1,230,noise,absent,notCued,noise,NA,NA_1,1,739
Fs510,1,231,congruent,present,label,accordion,accordion,accordion_2,1,1164
Fs510,1,232,incongruent,absent,label,tupperwarecontainer,NA,NA_3,1,741
Fs510,1,233,congruent,present,label,birdhouse,birdhouse,birdhouse_2,1,1799
Fs510,1,234,noise,absent,notCued,noise,NA,NA_4,1,2216
Fs510,1,235,noise,present,notCued,noise,soapdispenser,soapdispenser_2,1,1269
Fs510,1,236,noise,absent,notCued,noise,NA,NA_4,1,742
Fs510,1,237,incongruent,absent,label,crown,NA,NA_3,1,844
Fs510,1,238,incongruent,absent,label,mailbox,NA,NA_3,1,530
Fs510,1,239,incongruent,absent,label,crown,NA,NA_4,1,742
Fs510,1,240,noise,present,notCued,noise,corset,corset_4,1,1271
Fs510,1,241,congruent,present,label,feather,feather,feather_2,1,844
Fs510,1,242,noise,present,notCued,noise,vacuumcleaner,vacuumcleaner_3,0,1588
Fs510,1,243,noise,present,notCued,noise,laptop,laptop_1,1,1377
Fs510,1,244,congruent,present,label,leaf,leaf,leaf_3,1,1266
Fs510,1,245,noise,present,notCued,noise,mailbox,mailbox_3,1,952
Fs510,1,246,incongruent,absent,label,perfumebottle,NA,NA_3,1,2743
Fs510,1,247,congruent,present,label,robot,robot,robot_1,1,3063
Fs510,1,248,congruent,present,label,accordion,accordion,accordion_3,1,1165
Fs510,1,249,noise,present,notCued,noise,accordion,accordion_4,1,1690
Fs510,1,250,noise,present,notCued,noise,feather,feather_4,1,1270
Fs510,1,251,incongruent,absent,label,wheelchair,NA,NA_4,1,847
Fs510,1,252,noise,absent,notCued,noise,NA,NA_4,1,1059
Fs510,1,253,incongruent,absent,label,highchair,NA,NA_4,1,741
Fs510,1,254,noise,present,notCued,noise,wheelchair,wheelchair_3,1,1901
Fs510,1,255,incongruent,absent,label,birdcage,NA,NA_2,1,845
Fs510,1,256,incongruent,present,label,wheelchair,sewingmachine,sewingmachine_2,1,949
Fs510,1,257,noise,absent,notCued,noise,NA,NA_2,1,740
Fs510,1,258,noise,present,notCued,noise,cooler,cooler_3,1,952
Fs510,1,259,noise,absent,notCued,noise,NA,NA_2,1,634
Fs510,1,260,incongruent,absent,label,corkscrew,NA,NA_3,1,636
Fs510,1,261,noise,present,notCued,noise,musicstand,musicstand_2,0,952
Fs510,1,262,noise,absent,notCued,noise,NA,NA_2,1,636
Fs510,1,263,incongruent,absent,label,mailbox,NA,NA_4,1,634
Fs510,1,264,congruent,present,label,sink,sink,sink_3,1,1056
Fs510,1,265,incongruent,absent,label,typewriter,NA,NA_3,1,634
Fs510,1,266,incongruent,absent,label,perfumebottle,NA,NA_1,1,635
Fs510,1,267,noise,present,notCued,noise,birdhouse,birdhouse_1,0,951
Fs510,1,268,noise,absent,notCued,noise,NA,NA_2,1,529
Fs510,1,269,noise,absent,notCued,noise,NA,NA_2,1,530
Fs510,1,270,congruent,present,label,iceskates,iceskates,iceskates_1,1,845
Fs510,1,271,incongruent,absent,label,houseplant,NA,NA_3,1,741
Fs510,1,272,noise,absent,notCued,noise,NA,NA_3,1,528
Fs510,1,273,noise,present,notCued,noise,fireplace,fireplace_3,1,951
Fs510,1,274,noise,absent,notCued,noise,NA,NA_1,1,634
Fs510,1,275,congruent,present,label,cashregister,cashregister,cashregister_4,1,1691
Fs510,1,276,incongruent,absent,label,pillow,NA,NA_1,1,952
Fs510,1,277,noise,present,notCued,noise,soapdispenser,soapdispenser_3,0,1164
Fs510,1,278,noise,absent,notCued,noise,NA,NA_2,1,739
Fs510,1,279,incongruent,absent,label,tractor,NA,NA_3,1,635
Fs510,1,280,noise,present,notCued,noise,typewriter,typewriter_2,1,1798
Fs510,1,281,incongruent,absent,label,mailbox,NA,NA_4,1,739
Fs510,1,282,incongruent,absent,label,anchor,NA,NA_3,1,846
Fs510,1,283,noise,absent,notCued,noise,NA,NA_2,1,742
Fs510,1,284,noise,absent,notCued,noise,NA,NA_2,1,635
Fs510,1,285,congruent,present,label,fireplace,fireplace,fireplace_1,1,1691
Fs510,1,286,congruent,present,label,pillow,pillow,pillow_2,1,2217
Fs510,1,287,noise,present,notCued,noise,mailbox,mailbox_1,1,1163
Fs510,1,288,congruent,present,label,wheelchair,wheelchair,wheelchair_4,1,1161
Fs510,1,289,incongruent,absent,label,mailbox,NA,NA_1,1,740
Fs510,1,290,incongruent,absent,label,coffin,NA,NA_2,1,529
Fs510,1,291,noise,absent,notCued,noise,NA,NA_2,1,634
Fs510,1,292,noise,absent,notCued,noise,NA,NA_2,1,634
Fs510,1,293,noise,absent,notCued,noise,NA,NA_1,1,635
Fs510,1,294,incongruent,absent,label,typewriter,NA,NA_1,1,739
Fs510,1,295,incongruent,absent,label,leaf,NA,NA_4,1,529
Fs510,1,296,noise,absent,notCued,noise,NA,NA_3,1,530
Fs510,1,297,noise,absent,notCued,noise,NA,NA_2,1,528
Fs510,1,298,incongruent,absent,label,leaf,NA,NA_3,1,636
Fs510,1,299,congruent,present,label,highchair,highchair,highchair_3,1,846
Fs510,1,300,incongruent,absent,label,cooler,NA,NA_3,1,635
Fs510,1,301,noise,absent,notCued,noise,NA,NA_1,1,633
Fs510,1,302,noise,absent,notCued,noise,NA,NA_1,1,636
Fs510,1,303,incongruent,present,label,wheelchair,toaster,toaster_1,1,951
Fs510,1,304,noise,present,notCued,noise,sink,sink_4,0,1585
Fs510,1,305,noise,present,notCued,noise,crown,crown_4,1,847
Fs510,1,306,incongruent,absent,label,tractor,NA,NA_4,1,635
Fs510,1,307,noise,absent,notCued,noise,NA,NA_4,1,848
Fs510,1,308,congruent,present,label,highchair,highchair,highchair_4,0,530
Fs510,1,309,incongruent,absent,label,birdhouse,NA,NA_3,1,953
Fs510,1,310,noise,present,notCued,noise,perfumebottle,perfumebottle_2,1,1692
Fs510,1,311,incongruent,present,label,fireplace,kettle,kettle_2,1,1691
Fs510,1,312,noise,present,notCued,noise,laudrybasket,laudrybasket_1,1,3175
Fs510,1,313,congruent,present,label,wheelchair,wheelchair,wheelchair_1,1,2539
Fs510,1,314,incongruent,absent,label,sink,NA,NA_3,1,1162
Fs510,1,315,noise,absent,notCued,noise,NA,NA_1,1,845
Fs510,1,316,noise,present,notCued,noise,birdcage,birdcage_4,1,2221
Fs510,1,317,noise,present,notCued,noise,kettle,kettle_3,1,1691
Fs510,1,318,congruent,present,label,sink,sink,sink_2,1,1800
Fs510,1,319,noise,present,notCued,noise,robot,robot_2,1,1481
Fs510,1,320,noise,present,notCued,noise,typewriter,typewriter_4,1,2534
Fs511,1,1,incongruent,present,label,doorknocker,soapdispenser,soapdispenser_3,0,2425
Fs511,1,2,incongruent,absent,label,tupperwarecontainer,NA,NA_2,1,1900
Fs511,1,3,incongruent,absent,label,highchair,NA,NA_1,1,2215
Fs511,1,4,incongruent,absent,label,mailbox,NA,NA_4,1,2318
Fs511,1,5,noise,absent,notCued,noise,NA,NA_3,1,2213
Fs511,1,6,noise,absent,notCued,noise,NA,NA_3,1,2213
Fs511,1,7,incongruent,present,label,coffin,laptop,laptop_4,1,2003
Fs511,1,8,noise,absent,notCued,noise,NA,NA_2,1,2218
Fs511,1,9,noise,present,notCued,noise,robot,robot_2,0,2426
Fs511,1,10,noise,present,notCued,noise,eyeglasses,eyeglasses_2,0,2427
Fs511,1,11,noise,present,notCued,noise,cooler,cooler_4,0,3058
Fs511,1,12,noise,present,notCued,noise,coffin,coffin_1,0,2742
Fs511,1,13,incongruent,absent,label,coffin,NA,NA_3,1,2744
Fs511,1,14,noise,absent,notCued,noise,NA,NA_4,1,2212
Fs511,1,15,incongruent,absent,label,soapdispenser,NA,NA_1,1,2534
Fs511,1,16,noise,present,notCued,noise,perfumebottle,perfumebottle_2,0,2215
Fs511,1,17,congruent,present,label,toaster,toaster,toaster_1,1,2740
Fs511,1,18,incongruent,absent,label,sewingmachine,NA,NA_3,1,2428
Fs511,1,19,congruent,present,label,wheelchair,wheelchair,wheelchair_4,1,1054
Fs511,1,20,noise,absent,notCued,noise,NA,NA_1,1,2112
Fs511,1,21,noise,present,notCued,noise,leaf,leaf_2,1,1265
Fs511,1,22,incongruent,present,label,vacuumcleaner,swissarmyknife,swissarmyknife_4,1,3690
Fs511,1,23,incongruent,absent,label,crown,NA,NA_4,1,2214
Fs511,1,24,noise,present,notCued,noise,sink,sink_4,0,2109
Fs511,1,25,noise,present,notCued,noise,cashregister,cashregister_4,0,3272
Fs511,1,26,congruent,present,label,sewingmachine,sewingmachine,sewingmachine_4,0,2953
Fs511,1,27,noise,present,notCued,noise,birdhouse,birdhouse_1,1,1371
Fs511,1,28,incongruent,present,label,corset,wheelchair,wheelchair_2,1,3159
Fs511,1,29,congruent,present,label,microphone,microphone,microphone_2,1,3160
Fs511,1,30,congruent,present,label,feather,feather,feather_3,1,1160
Fs511,1,31,congruent,present,label,swissarmyknife,swissarmyknife,swissarmyknife_2,1,2845
Fs511,1,32,congruent,present,label,highchair,highchair,highchair_3,0,3056
Fs511,1,33,congruent,present,label,coffeemaker,coffeemaker,coffeemaker_3,1,2217
Fs511,1,34,incongruent,absent,label,microphone,NA,NA_1,1,1477
Fs511,1,35,noise,absent,notCued,noise,NA,NA_2,1,2112
Fs511,1,36,noise,present,notCued,noise,tupperwarecontainer,tupperwarecontainer_2,1,845
Fs511,1,37,noise,present,notCued,noise,laudrybasket,laudrybasket_3,1,1370
Fs511,1,38,incongruent,absent,label,swissarmyknife,NA,NA_4,1,2319
Fs511,1,39,incongruent,absent,label,coffin,NA,NA_3,1,1581
Fs511,1,40,noise,absent,notCued,noise,NA,NA_4,1,1579
Fs511,1,41,incongruent,present,label,mailbox,robot,robot_3,0,2320
Fs511,1,42,noise,absent,notCued,noise,NA,NA_2,1,1370
Fs511,1,43,congruent,present,label,strainer,strainer,strainer_4,1,3687
Fs511,1,44,noise,absent,notCued,noise,NA,NA_4,1,2746
Fs511,1,45,incongruent,absent,label,cashregister,NA,NA_3,1,3058
Fs511,1,46,incongruent,absent,label,corkscrew,NA,NA_2,1,3692
Fs511,1,47,incongruent,absent,label,microphone,NA,NA_2,1,1055
Fs511,1,48,noise,absent,notCued,noise,NA,NA_1,1,1584
Fs511,1,49,incongruent,absent,label,mailbox,NA,NA_2,1,2533
Fs511,1,50,incongruent,absent,label,laudrybasket,NA,NA_4,1,4540
Fs511,1,51,noise,present,notCued,noise,leaf,leaf_1,1,2953
Fs511,1,52,noise,absent,notCued,noise,NA,NA_2,1,1476
Fs511,1,53,incongruent,absent,label,coffeemaker,NA,NA_1,1,4114
Fs511,1,54,congruent,present,label,tupperwarecontainer,tupperwarecontainer,tupperwarecontainer_1,1,843
Fs511,1,55,congruent,present,label,crown,crown,crown_2,0,4113
Fs511,1,56,noise,absent,notCued,noise,NA,NA_4,1,1688
Fs511,1,57,incongruent,absent,label,perfumebottle,NA,NA_4,1,2637
Fs511,1,58,noise,present,notCued,noise,laudrybasket,laudrybasket_1,0,2110
Fs511,1,59,congruent,present,label,eyeglasses,eyeglasses,eyeglasses_1,1,739
Fs511,1,60,noise,absent,notCued,noise,NA,NA_2,1,1898
Fs511,1,61,noise,present,notCued,noise,eyeglasses,eyeglasses_3,1,2113
Fs511,1,62,noise,absent,notCued,noise,NA,NA_4,1,1899
Fs511,1,63,congruent,present,label,sewingmachine,sewingmachine,sewingmachine_3,0,2428
Fs511,1,64,congruent,present,label,houseplant,houseplant,houseplant_4,0,2532
Fs511,1,65,noise,absent,notCued,noise,NA,NA_3,1,847
Fs511,1,66,incongruent,absent,label,strainer,NA,NA_2,1,2846
Fs511,1,67,congruent,present,label,strainer,strainer,strainer_3,1,950
Fs511,1,68,incongruent,absent,label,toaster,NA,NA_4,1,3794
Fs511,1,69,noise,absent,notCued,noise,NA,NA_3,1,1793
Fs511,1,70,noise,present,notCued,noise,robot,robot_1,1,1374
Fs511,1,71,noise,absent,notCued,noise,NA,NA_3,1,2003
Fs511,1,72,congruent,present,label,doorknocker,doorknocker,doorknocker_4,1,1267
Fs511,1,73,noise,present,notCued,noise,pillow,pillow_1,0,2001
Fs511,1,74,congruent,present,label,wheelchair,wheelchair,wheelchair_1,1,5798
Fs511,1,75,congruent,present,label,tupperwarecontainer,tupperwarecontainer,tupperwarecontainer_4,0,1900
Fs511,1,76,incongruent,absent,label,tractor,NA,NA_1,1,1795
Fs511,1,77,noise,present,notCued,noise,musicstand,musicstand_4,0,2106
Fs511,1,78,noise,present,notCued,noise,coffin,coffin_2,1,1791
Fs511,1,79,noise,present,notCued,noise,swissarmyknife,swissarmyknife_1,1,6436
Fs511,1,80,noise,present,notCued,noise,corset,corset_3,1,2847
Fs511,1,81,congruent,present,label,soapdispenser,soapdispenser,soapdispenser_1,0,2640
Fs511,1,82,noise,absent,notCued,noise,NA,NA_4,1,6120
Fs511,1,83,incongruent,absent,label,anchor,NA,NA_2,1,1687
Fs511,1,84,congruent,present,label,doorknocker,doorknocker,doorknocker_1,0,1900
Fs511,1,85,noise,absent,notCued,noise,NA,NA_3,1,1480
Fs511,1,86,noise,present,notCued,noise,doorknocker,doorknocker_3,0,948
Fs511,1,87,incongruent,absent,label,musicstand,NA,NA_1,1,3269
Fs511,1,88,noise,absent,notCued,noise,NA,NA_3,1,1584
Fs511,1,89,noise,absent,notCued,noise,NA,NA_2,1,2320
Fs511,1,90,incongruent,absent,label,leaf,NA,NA_1,1,2953
Fs511,1,91,noise,absent,notCued,noise,NA,NA_1,1,3692
Fs511,1,92,noise,present,notCued,noise,vacuumcleaner,vacuumcleaner_3,1,6011
Fs511,1,93,noise,absent,notCued,noise,NA,NA_2,1,6238
Fs511,1,94,congruent,present,label,coffin,coffin,coffin_4,1,1055
Fs511,1,95,incongruent,absent,label,sewingmachine,NA,NA_4,1,3060
Fs511,1,96,congruent,present,label,toaster,toaster,toaster_2,1,845
Fs511,1,97,incongruent,absent,label,swissarmyknife,NA,NA_1,1,3687
Fs511,1,98,noise,present,notCued,noise,birdcage,birdcage_3,0,2320
Fs511,1,99,incongruent,absent,label,fireplace,NA,NA_4,1,2530
Fs511,1,100,congruent,present,label,pillow,pillow,pillow_4,1,3379
Fs511,1,101,noise,absent,notCued,noise,NA,NA_3,1,2739
Fs511,1,102,incongruent,absent,label,robot,NA,NA_3,1,1903
Fs511,1,103,noise,absent,notCued,noise,NA,NA_2,1,1688
Fs511,1,104,noise,absent,notCued,noise,NA,NA_3,1,3059
Fs511,1,105,noise,present,notCued,noise,birdhouse,birdhouse_4,1,1791
Fs511,1,106,noise,present,notCued,noise,corset,corset_1,1,2107
Fs511,1,107,noise,absent,notCued,noise,NA,NA_3,1,4644
Fs511,1,108,noise,absent,notCued,noise,NA,NA_3,1,2429
Fs511,1,109,incongruent,absent,label,highchair,NA,NA_2,1,3910
Fs511,1,110,congruent,present,label,feather,feather,feather_4,1,739
Fs511,1,111,incongruent,absent,label,crown,NA,NA_3,1,2527
Fs511,1,112,noise,present,notCued,noise,toaster,toaster_3,1,845
Fs511,1,113,noise,absent,notCued,noise,NA,NA_2,1,1795
Fs511,1,114,incongruent,absent,label,cooler,NA,NA_4,1,1580
Fs511,1,115,incongruent,absent,label,strainer,NA,NA_1,0,1371
Fs511,1,116,incongruent,absent,label,wheelbarrow,NA,NA_3,1,1793
Fs511,1,117,incongruent,absent,label,strainer,NA,NA_4,0,1163
Fs511,1,118,incongruent,absent,label,coffin,NA,NA_4,1,1687
Fs511,1,119,noise,present,notCued,noise,cashregister,cashregister_1,1,845
Fs511,1,120,congruent,present,label,laptop,laptop,laptop_1,1,1690
Fs511,1,121,noise,absent,notCued,noise,NA,NA_2,1,1901
Fs511,1,122,congruent,present,label,accordion,accordion,accordion_1,1,1164
Fs511,1,123,noise,absent,notCued,noise,NA,NA_1,1,1586
Fs511,1,124,noise,absent,notCued,noise,NA,NA_2,1,1479
Fs511,1,125,noise,present,notCued,noise,kettle,kettle_2,1,1162
Fs511,1,126,noise,absent,notCued,noise,NA,NA_1,1,1691
Fs511,1,127,congruent,present,label,musicstand,musicstand,musicstand_3,1,2321
Fs511,1,128,congruent,present,label,typewriter,typewriter,typewriter_2,1,1693
Fs511,1,129,congruent,present,label,highchair,highchair,highchair_2,1,1795
Fs511,1,130,noise,present,notCued,noise,strainer,strainer_2,0,2533
Fs511,1,131,noise,present,notCued,noise,sewingmachine,sewingmachine_1,1,3376
Fs511,1,132,noise,absent,notCued,noise,NA,NA_3,1,2424
Fs511,1,133,noise,present,notCued,noise,laudrybasket,laudrybasket_4,1,1267
Fs511,1,134,congruent,present,label,kettle,kettle,kettle_3,1,842
Fs511,1,135,congruent,present,label,wheelbarrow,wheelbarrow,wheelbarrow_2,1,951
Fs511,1,136,noise,absent,notCued,noise,NA,NA_1,1,1793
Fs511,1,137,noise,absent,notCued,noise,NA,NA_3,1,2742
Fs511,1,138,noise,absent,notCued,noise,NA,NA_3,1,1793
Fs511,1,139,incongruent,absent,label,toaster,NA,NA_2,0,1796
Fs511,1,140,incongruent,absent,label,kettle,NA,NA_2,1,3375
Fs511,1,141,incongruent,absent,label,microphone,NA,NA_4,1,2322
Fs511,1,142,congruent,present,label,coffin,coffin,coffin_3,1,1056
Fs511,1,143,noise,absent,notCued,noise,NA,NA_1,1,1266
Fs511,1,144,noise,absent,notCued,noise,NA,NA_4,1,1373
Fs511,1,145,incongruent,absent,label,birdcage,NA,NA_1,1,6012
Fs511,1,146,noise,present,notCued,noise,fireplace,fireplace_1,0,1478
Fs511,1,147,noise,absent,notCued,noise,NA,NA_4,1,3377
Fs511,1,148,congruent,present,label,doorknocker,doorknocker,doorknocker_2,1,4535
Fs511,1,149,congruent,present,label,coffeemaker,coffeemaker,coffeemaker_1,0,2744
Fs511,1,150,noise,present,notCued,noise,accordion,accordion_2,1,1267
Fs511,1,151,incongruent,absent,label,birdhouse,NA,NA_4,1,3271
Fs511,1,152,noise,absent,notCued,noise,NA,NA_4,1,3373
Fs511,1,153,noise,present,notCued,noise,cashregister,cashregister_2,0,2112
Fs511,1,154,noise,absent,notCued,noise,NA,NA_4,1,1161
Fs511,1,155,incongruent,absent,label,vacuumcleaner,NA,NA_4,1,3480
Fs511,1,156,noise,absent,notCued,noise,NA,NA_3,1,1374
Fs511,1,157,incongruent,absent,label,accordion,NA,NA_1,1,1897
Fs511,1,158,noise,present,notCued,noise,iceskates,iceskates_2,1,1900
Fs511,1,159,incongruent,absent,label,cashregister,NA,NA_2,1,2212
Fs511,1,160,incongruent,absent,label,birdcage,NA,NA_2,1,2528
Fs511,1,161,noise,present,notCued,noise,iceskates,iceskates_3,1,1266
Fs511,1,162,noise,absent,notCued,noise,NA,NA_3,1,1266
Fs511,1,163,congruent,present,label,laudrybasket,laudrybasket,laudrybasket_2,1,2746
Fs511,1,164,noise,present,notCued,noise,kettle,kettle_1,1,2954
Fs511,1,165,incongruent,absent,label,tupperwarecontainer,NA,NA_4,1,2951
Fs511,1,166,incongruent,absent,label,cooler,NA,NA_2,1,2110
Fs511,1,167,incongruent,present,label,cooler,vacuumcleaner,vacuumcleaner_1,1,740
Fs511,1,168,noise,present,notCued,noise,microphone,microphone_1,0,2426
Fs511,1,169,noise,absent,notCued,noise,NA,NA_3,1,1477
Fs511,1,170,noise,present,notCued,noise,microphone,microphone_4,0,1479
Fs511,1,171,incongruent,absent,label,coffeemaker,NA,NA_4,1,1685
Fs511,1,172,noise,present,notCued,noise,laptop,laptop_3,0,1585
Fs511,1,173,incongruent,absent,label,iceskates,NA,NA_2,1,3057
Fs511,1,174,incongruent,absent,label,feather,NA,NA_1,1,1161
Fs511,1,175,noise,absent,notCued,noise,NA,NA_1,1,1057
Fs511,1,176,incongruent,absent,label,wheelchair,NA,NA_2,1,1688
Fs511,1,177,noise,absent,notCued,noise,NA,NA_4,1,2533
Fs511,1,178,noise,present,notCued,noise,musicstand,musicstand_2,0,1057
Fs511,1,179,incongruent,absent,label,iceskates,NA,NA_4,1,1475
Fs511,1,180,incongruent,absent,label,eyeglasses,NA,NA_1,1,3061
Fs511,1,181,incongruent,absent,label,cooler,NA,NA_2,1,1479
Fs511,1,182,noise,absent,notCued,noise,NA,NA_1,1,1688
Fs511,1,183,noise,present,notCued,noise,anchor,anchor_4,0,4534
Fs511,1,184,congruent,present,label,swissarmyknife,swissarmyknife,swissarmyknife_3,0,1690
Fs511,1,185,congruent,present,label,fireplace,fireplace,fireplace_4,0,3163
Fs511,1,186,noise,present,notCued,noise,sink,sink_1,0,2424
Fs511,1,187,congruent,present,label,robot,robot,robot_4,0,3372
Fs511,1,188,noise,present,notCued,noise,corkscrew,corkscrew_4,0,4324
Fs511,1,189,noise,absent,notCued,noise,NA,NA_1,1,3376
Fs511,1,190,incongruent,absent,label,sink,NA,NA_1,1,2428
Fs511,1,191,congruent,present,label,sink,sink,sink_2,0,5271
Fs511,1,192,noise,present,notCued,noise,corset,corset_4,0,1898
Fs511,1,193,noise,present,notCued,noise,laptop,laptop_2,0,846
Fs511,1,194,congruent,present,label,houseplant,houseplant,houseplant_2,0,2108
Fs511,1,195,noise,absent,notCued,noise,NA,NA_2,1,1582
Fs511,1,196,incongruent,present,label,mailbox,vacuumcleaner,vacuumcleaner_2,0,845
Fs511,1,197,incongruent,absent,label,kettle,NA,NA_1,1,949
Fs511,1,198,noise,present,notCued,noise,birdcage,birdcage_1,0,948
Fs511,1,199,incongruent,absent,label,eyeglasses,NA,NA_4,1,1160
Fs511,1,200,incongruent,absent,label,strainer,NA,NA_4,1,1478
Fs511,1,201,noise,present,notCued,noise,corkscrew,corkscrew_1,0,4738
Fs511,1,202,congruent,present,label,musicstand,musicstand,musicstand_1,1,1581
Fs511,1,203,congruent,present,label,crown,crown,crown_1,0,3793
Fs511,1,204,noise,present,notCued,noise,pillow,pillow_3,0,2110
Fs511,1,205,congruent,present,label,anchor,anchor,anchor_1,0,2844
Fs511,1,206,noise,present,notCued,noise,eyeglasses,eyeglasses_4,0,1163
Fs511,1,207,noise,present,notCued,noise,corkscrew,corkscrew_3,1,1160
Fs511,1,208,noise,absent,notCued,noise,NA,NA_2,1,4006.9999999999995
Fs511,1,209,incongruent,present,label,strainer,cashregister,cashregister_3,0,1371
Fs511,1,210,congruent,present,label,fireplace,fireplace,fireplace_3,0,952
Fs511,1,211,noise,absent,notCued,noise,NA,NA_3,1,1056
Fs511,1,212,incongruent,absent,label,cooler,NA,NA_1,1,2420
Fs511,1,213,incongruent,absent,label,pillow,NA,NA_3,1,1898
Fs511,1,214,congruent,present,label,wheelbarrow,wheelbarrow,wheelbarrow_4,0,1899
Fs511,1,215,noise,present,notCued,noise,corkscrew,corkscrew_2,0,1370
Fs511,1,216,incongruent,absent,label,toaster,NA,NA_3,1,1371
Fs511,1,217,congruent,present,label,crown,crown,crown_4,0,3056
Fs511,1,218,incongruent,absent,label,fireplace,NA,NA_1,1,1372
Fs511,1,219,noise,absent,notCued,noise,NA,NA_1,1,1900
Fs511,1,220,noise,absent,notCued,noise,NA,NA_3,1,1057
Fs511,1,221,noise,absent,notCued,noise,NA,NA_1,1,1896
Fs511,1,222,noise,absent,notCued,noise,NA,NA_1,1,949
Fs511,1,223,noise,present,notCued,noise,tractor,tractor_1,0,1056
Fs511,1,224,noise,present,notCued,noise,kettle,kettle_4,0,845
Fs511,1,225,incongruent,present,label,sink,wheelbarrow,wheelbarrow_3,0,1691
Fs511,1,226,noise,absent,notCued,noise,NA,NA_1,1,1899
Fs511,1,227,noise,absent,notCued,noise,NA,NA_3,1,1478
Fs511,1,228,noise,present,notCued,noise,vacuumcleaner,vacuumcleaner_4,0,1265
Fs511,1,229,noise,present,notCued,noise,soapdispenser,soapdispenser_4,0,1264
Fs511,1,230,noise,present,notCued,noise,cooler,cooler_1,1,5484
Fs511,1,231,incongruent,absent,label,accordion,NA,NA_2,1,2216
Fs511,1,232,congruent,present,label,tupperwarecontainer,tupperwarecontainer,tupperwarecontainer_3,1,2953
Fs511,1,233,incongruent,absent,label,birdhouse,NA,NA_2,1,950
Fs511,1,234,noise,present,notCued,noise,typewriter,typewriter_4,1,7477
Fs511,1,235,noise,absent,notCued,noise,NA,NA_2,1,3904
Fs511,1,236,noise,present,notCued,noise,perfumebottle,perfumebottle_4,0,3270
Fs511,1,237,congruent,present,label,crown,crown,crown_3,0,2743
Fs511,1,238,congruent,present,label,mailbox,mailbox,mailbox_3,1,4642
Fs511,1,239,incongruent,present,label,crown,iceskates,iceskates_4,0,5275
Fs511,1,240,noise,absent,notCued,noise,NA,NA_4,1,5589
Fs511,1,241,incongruent,absent,label,feather,NA,NA_2,1,4429
Fs511,1,242,noise,absent,notCued,noise,NA,NA_3,1,3900
Fs511,1,243,noise,absent,notCued,noise,NA,NA_1,1,1580
Fs511,1,244,incongruent,absent,label,leaf,NA,NA_3,1,4956
Fs511,1,245,noise,absent,notCued,noise,NA,NA_3,1,4954
Fs511,1,246,congruent,present,label,perfumebottle,perfumebottle,perfumebottle_3,1,1901
Fs511,1,247,incongruent,absent,label,robot,NA,NA_1,1,2424
Fs511,1,248,incongruent,absent,label,accordion,NA,NA_3,1,2948
Fs511,1,249,noise,absent,notCued,noise,NA,NA_4,1,4108
Fs511,1,250,noise,absent,notCued,noise,NA,NA_4,1,1371
Fs511,1,251,incongruent,present,label,wheelchair,birdcage,birdcage_4,0,2847
Fs511,1,252,noise,present,notCued,noise,accordion,accordion_4,1,1473
Fs511,1,253,congruent,present,label,highchair,highchair,highchair_4,0,5169
Fs511,1,254,noise,absent,notCued,noise,NA,NA_3,1,3472
Fs511,1,255,congruent,present,label,birdcage,birdcage,birdcage_2,0,2844
Fs511,1,256,incongruent,absent,label,wheelchair,NA,NA_2,1,1055
Fs511,1,257,noise,present,notCued,noise,feather,feather_2,0,3268
Fs511,1,258,noise,absent,notCued,noise,NA,NA_3,1,4852
Fs511,1,259,noise,present,notCued,noise,anchor,anchor_2,1,6132
Fs511,1,260,incongruent,present,label,corkscrew,microphone,microphone_3,0,4429
Fs511,1,261,noise,absent,notCued,noise,NA,NA_2,1,2318
Fs511,1,262,noise,present,notCued,noise,fireplace,fireplace_2,0,1793
Fs511,1,263,congruent,present,label,mailbox,mailbox,mailbox_4,0,1584
Fs511,1,264,incongruent,absent,label,sink,NA,NA_3,1,2211
Fs511,1,265,congruent,present,label,typewriter,typewriter,typewriter_3,1,1585
Fs511,1,266,congruent,present,label,perfumebottle,perfumebottle,perfumebottle_1,0,2841
Fs511,1,267,noise,absent,notCued,noise,NA,NA_1,1,2003
Fs511,1,268,noise,present,notCued,noise,cooler,cooler_2,0,1794
Fs511,1,269,noise,present,notCued,noise,soapdispenser,soapdispenser_2,0,1688
Fs511,1,270,incongruent,absent,label,iceskates,NA,NA_1,1,4327
Fs511,1,271,incongruent,present,label,houseplant,accordion,accordion_3,0,3058
Fs511,1,272,noise,present,notCued,noise,houseplant,houseplant_3,0,1690
Fs511,1,273,noise,absent,notCued,noise,NA,NA_3,1,1476
Fs511,1,274,noise,present,notCued,noise,highchair,highchair_1,0,1897
Fs511,1,275,incongruent,absent,label,cashregister,NA,NA_4,1,4318
Fs511,1,276,incongruent,present,label,pillow,houseplant,houseplant_1,1,4745
Fs511,1,277,noise,absent,notCued,noise,NA,NA_3,1,4637
Fs511,1,278,noise,present,notCued,noise,sewingmachine,sewingmachine_2,1,4217
Fs511,1,279,congruent,present,label,tractor,tractor,tractor_3,1,6410
Fs511,1,280,noise,absent,notCued,noise,NA,NA_2,1,6900
Fs511,1,281,incongruent,present,label,mailbox,toaster,toaster_4,0,6805
Fs511,1,282,congruent,present,label,anchor,anchor,anchor_3,0,5268
Fs511,1,283,noise,present,notCued,noise,birdhouse,birdhouse_2,0,5900
Fs511,1,284,noise,present,notCued,noise,pillow,pillow_2,1,3267
Fs511,1,285,incongruent,absent,label,fireplace,NA,NA_1,1,2425
Fs511,1,286,incongruent,absent,label,pillow,NA,NA_2,1,2109
Fs511,1,287,noise,absent,notCued,noise,NA,NA_1,1,3798
Fs511,1,288,incongruent,absent,label,wheelchair,NA,NA_4,1,4110
Fs511,1,289,congruent,present,label,mailbox,mailbox,mailbox_1,1,6659
Fs511,1,290,incongruent,present,label,coffin,tractor,tractor_2,0,6601
Fs511,1,291,noise,present,notCued,noise,corset,corset_2,1,4747
Fs511,1,292,noise,present,notCued,noise,mailbox,mailbox_2,1,6684
Fs511,1,293,noise,present,notCued,noise,typewriter,typewriter_1,1,6519
Fs511,1,294,incongruent,present,label,typewriter,wheelbarrow,wheelbarrow_1,0,7963
Fs511,1,295,congruent,present,label,leaf,leaf,leaf_4,0,3899
Fs511,1,296,noise,present,notCued,noise,wheelchair,wheelchair_3,0,2743
Fs511,1,297,noise,present,notCued,noise,coffeemaker,coffeemaker_2,0,3584
Fs511,1,298,congruent,present,label,leaf,leaf,leaf_3,0,2327
Fs511,1,299,incongruent,absent,label,highchair,NA,NA_3,1,3579
Fs511,1,300,congruent,present,label,cooler,cooler,cooler_3,1,2955
Fs511,1,301,noise,present,notCued,noise,feather,feather_1,1,4211
Fs511,1,302,noise,present,notCued,noise,iceskates,iceskates_1,1,4008
Fs511,1,303,incongruent,absent,label,wheelchair,NA,NA_1,1,6748
Fs511,1,304,noise,absent,notCued,noise,NA,NA_4,1,4217
Fs511,1,305,noise,absent,notCued,noise,NA,NA_4,1,7093
Fs511,1,306,congruent,present,label,tractor,tractor,tractor_4,1,2636
Fs511,1,307,noise,present,notCued,noise,coffeemaker,coffeemaker_4,0,4746
Fs511,1,308,incongruent,absent,label,highchair,NA,NA_4,1,5379
Fs511,1,309,congruent,present,label,birdhouse,birdhouse,birdhouse_3,0,4743
Fs511,1,310,noise,absent,notCued,noise,NA,NA_2,1,3374
Fs511,1,311,incongruent,absent,label,fireplace,NA,NA_2,1,3060
Fs511,1,312,noise,absent,notCued,noise,NA,NA_1,1,4952
Fs511,1,313,incongruent,absent,label,wheelchair,NA,NA_1,1,4219
Fs511,1,314,congruent,present,label,sink,sink,sink_3,0,4009.0000000000005
Fs511,1,315,noise,present,notCued,noise,strainer,strainer_1,0,2953
Fs511,1,316,noise,absent,notCued,noise,NA,NA_4,1,3897
Fs511,1,317,noise,absent,notCued,noise,NA,NA_3,1,1479
Fs511,1,318,incongruent,absent,label,sink,NA,NA_2,1,3583
Fs511,1,319,noise,absent,notCued,noise,NA,NA_2,1,1899
Fs511,1,320,noise,absent,notCued,noise,NA,NA_4,1,5057
Fs53,1,1,noise,present,notCued,noise,fireplace,fireplace_2,0,5085
Fs53,1,2,incongruent,present,label,iceskates,kettle,kettle_1,1,3812
Fs53,1,3,incongruent,absent,label,anchor,NA,NA_4,1,6919
Fs53,1,4,noise,absent,notCued,noise,NA,NA_4,1,6165
Fs53,1,5,incongruent,absent,label,kettle,NA,NA_4,1,7098
Fs53,1,6,congruent,present,label,toaster,toaster,toaster_2,1,5722
Fs53,1,7,congruent,present,label,eyeglasses,eyeglasses,eyeglasses_2,0,5508
Fs53,1,8,congruent,present,label,typewriter,typewriter,typewriter_1,1,6648
Fs53,1,9,incongruent,absent,label,strainer,NA,NA_2,1,6007
Fs53,1,10,noise,absent,notCued,noise,NA,NA_1,1,3285
Fs53,1,11,congruent,present,label,feather,feather,feather_2,1,5084
Fs53,1,12,noise,absent,notCued,noise,NA,NA_4,1,3710
Fs53,1,13,incongruent,absent,label,corkscrew,NA,NA_3,1,3072
Fs53,1,14,noise,absent,notCued,noise,NA,NA_2,1,3495
Fs53,1,15,congruent,present,label,crown,crown,crown_3,1,4135
Fs53,1,16,noise,present,notCued,noise,sink,sink_4,1,3917
Fs53,1,17,noise,present,notCued,noise,tractor,tractor_3,1,3392
Fs53,1,18,noise,present,notCued,noise,microphone,microphone_2,1,3920
Fs53,1,19,congruent,present,label,mailbox,mailbox,mailbox_1,1,3603
Fs53,1,20,noise,absent,notCued,noise,NA,NA_1,1,2226
Fs53,1,21,incongruent,absent,label,iceskates,NA,NA_1,1,3708
Fs53,1,22,incongruent,absent,label,pillow,NA,NA_1,1,2013.9999999999998
Fs53,1,23,noise,present,notCued,noise,eyeglasses,eyeglasses_1,1,3072
Fs53,1,24,noise,present,notCued,noise,corset,corset_3,1,2437
Fs53,1,25,incongruent,absent,label,laudrybasket,NA,NA_4,1,1483
Fs53,1,26,noise,present,notCued,noise,kettle,kettle_4,1,4345
Fs53,1,27,noise,present,notCued,noise,coffeemaker,coffeemaker_3,1,5511
Fs53,1,28,congruent,present,label,fireplace,fireplace,fireplace_4,1,3499
Fs53,1,29,noise,absent,notCued,noise,NA,NA_1,1,5088
Fs53,1,30,incongruent,present,label,eyeglasses,sewingmachine,sewingmachine_2,0,2861
Fs53,1,31,incongruent,absent,label,swissarmyknife,NA,NA_1,1,4450
Fs53,1,32,noise,present,notCued,noise,tupperwarecontainer,tupperwarecontainer_4,1,2756
Fs53,1,33,congruent,present,label,eyeglasses,eyeglasses,eyeglasses_3,0,5618
Fs53,1,34,noise,present,notCued,noise,houseplant,houseplant_1,0,8211
Fs53,1,35,incongruent,absent,label,wheelchair,NA,NA_2,1,1696
Fs53,1,36,incongruent,absent,label,coffeemaker,NA,NA_2,1,3709
Fs53,1,37,incongruent,absent,label,microphone,NA,NA_4,1,3922
Fs53,1,38,congruent,present,label,coffeemaker,coffeemaker,coffeemaker_1,1,4345
Fs53,1,39,noise,absent,notCued,noise,NA,NA_2,1,2861
Fs53,1,40,congruent,present,label,cooler,cooler,cooler_1,1,1907
Fs53,1,41,noise,present,notCued,noise,corkscrew,corkscrew_2,0,6269
Fs53,1,42,noise,present,notCued,noise,tupperwarecontainer,tupperwarecontainer_1,1,3072
Fs53,1,43,noise,absent,notCued,noise,NA,NA_1,1,4241
Fs53,1,44,noise,absent,notCued,noise,NA,NA_3,1,3920
Fs53,1,45,noise,present,notCued,noise,accordion,accordion_4,1,3286
Fs53,1,46,noise,present,notCued,noise,tupperwarecontainer,tupperwarecontainer_2,1,1271
Fs53,1,47,incongruent,absent,label,doorknocker,NA,NA_4,1,2544
Fs53,1,48,noise,absent,notCued,noise,NA,NA_4,1,3391
Fs53,1,49,incongruent,present,label,birdhouse,musicstand,musicstand_4,1,2650
Fs53,1,50,incongruent,absent,label,corset,NA,NA_3,1,2013.9999999999998
Fs53,1,51,congruent,present,label,perfumebottle,perfumebottle,perfumebottle_4,1,2544
Fs53,1,52,incongruent,absent,label,fireplace,NA,NA_3,1,2119
Fs53,1,53,noise,absent,notCued,noise,NA,NA_3,1,2119
Fs53,1,54,congruent,present,label,birdcage,birdcage,birdcage_4,0,1907
Fs53,1,55,noise,absent,notCued,noise,NA,NA_4,1,2650
Fs53,1,56,congruent,present,label,birdhouse,birdhouse,birdhouse_1,1,7655
Fs53,1,57,incongruent,absent,label,anchor,NA,NA_4,1,1803
Fs53,1,58,incongruent,absent,label,doorknocker,NA,NA_2,1,2012
Fs53,1,59,noise,absent,notCued,noise,NA,NA_4,1,3921
Fs53,1,60,noise,absent,notCued,noise,NA,NA_1,1,4238
Fs53,1,61,noise,present,notCued,noise,musicstand,musicstand_2,1,3710
Fs53,1,62,incongruent,absent,label,swissarmyknife,NA,NA_4,1,4977
Fs53,1,63,noise,absent,notCued,noise,NA,NA_2,1,5722
Fs53,1,64,incongruent,absent,label,feather,NA,NA_1,1,2225
Fs53,1,65,noise,present,notCued,noise,mailbox,mailbox_3,1,3921
Fs53,1,66,noise,absent,notCued,noise,NA,NA_4,1,1589
Fs53,1,67,incongruent,present,label,anchor,strainer,strainer_2,0,5616
Fs53,1,68,incongruent,present,label,birdcage,soapdispenser,soapdispenser_4,1,3495
Fs53,1,69,congruent,present,label,corkscrew,corkscrew,corkscrew_1,1,3708
Fs53,1,70,noise,present,notCued,noise,laudrybasket,laudrybasket_1,1,7399
Fs53,1,71,incongruent,present,label,leaf,typewriter,typewriter_3,0,2862
Fs53,1,72,congruent,present,label,corkscrew,corkscrew,corkscrew_3,1,5511
Fs53,1,73,incongruent,absent,label,mailbox,NA,NA_3,1,2225
Fs53,1,74,congruent,present,label,sewingmachine,sewingmachine,sewingmachine_1,1,5086
Fs53,1,75,noise,present,notCued,noise,anchor,anchor_2,1,4027
Fs53,1,76,noise,present,notCued,noise,strainer,strainer_1,1,4451
Fs53,1,77,noise,absent,notCued,noise,NA,NA_3,1,3815
Fs53,1,78,incongruent,present,label,fireplace,crown,crown_4,1,4241
Fs53,1,79,incongruent,absent,label,tupperwarecontainer,NA,NA_2,1,2448
Fs53,1,80,congruent,present,label,doorknocker,doorknocker,doorknocker_1,1,2650
Fs53,1,81,incongruent,absent,label,coffeemaker,NA,NA_3,1,2225
Fs53,1,82,incongruent,absent,label,coffeemaker,NA,NA_1,1,2437
Fs53,1,83,noise,absent,notCued,noise,NA,NA_4,1,2862
Fs53,1,84,incongruent,absent,label,cashregister,NA,NA_2,1,4451
Fs53,1,85,incongruent,absent,label,toaster,NA,NA_4,1,1908
Fs53,1,86,noise,absent,notCued,noise,NA,NA_2,1,2649
Fs53,1,87,noise,present,notCued,noise,corkscrew,corkscrew_4,1,2861
Fs53,1,88,noise,absent,notCued,noise,NA,NA_4,1,3179
Fs53,1,89,incongruent,absent,label,tractor,NA,NA_2,1,2013
Fs53,1,90,incongruent,absent,label,corset,NA,NA_1,1,4029
Fs53,1,91,congruent,present,label,laptop,laptop,laptop_3,1,6082
Fs53,1,92,incongruent,absent,label,laptop,NA,NA_1,1,2013.9999999999998
Fs53,1,93,noise,present,notCued,noise,robot,robot_2,1,5724
Fs53,1,94,incongruent,absent,label,birdcage,NA,NA_4,1,2755
Fs53,1,95,incongruent,present,label,fireplace,wheelchair,wheelchair_4,0,10405
Fs53,1,96,incongruent,absent,label,sink,NA,NA_1,1,1695
Fs53,1,97,incongruent,absent,label,sewingmachine,NA,NA_4,1,1272
Fs53,1,98,incongruent,present,label,sewingmachine,cashregister,cashregister_1,1,3074
Fs53,1,99,incongruent,absent,label,tractor,NA,NA_1,1,2013
Fs53,1,100,noise,absent,notCued,noise,NA,NA_4,1,1908
Fs53,1,101,noise,present,notCued,noise,coffin,coffin_3,1,4132
Fs53,1,102,congruent,present,label,soapdispenser,soapdispenser,soapdispenser_2,1,2438
Fs53,1,103,noise,present,notCued,noise,soapdispenser,soapdispenser_3,1,1802
Fs53,1,104,incongruent,absent,label,soapdispenser,NA,NA_3,1,1060
Fs53,1,105,noise,present,notCued,noise,sink,sink_3,1,2332
Fs53,1,106,congruent,present,label,mailbox,mailbox,mailbox_2,1,2967
Fs53,1,107,incongruent,absent,label,toaster,NA,NA_2,1,1272
Fs53,1,108,incongruent,absent,label,fireplace,NA,NA_1,1,1166
Fs53,1,109,congruent,present,label,leaf,leaf,leaf_4,1,1483
Fs53,1,110,noise,present,notCued,noise,coffeemaker,coffeemaker_4,1,3815
Fs53,1,111,congruent,present,label,soapdispenser,soapdispenser,soapdispenser_1,1,3603
Fs53,1,112,noise,present,notCued,noise,perfumebottle,perfumebottle_3,1,2862
Fs53,1,113,incongruent,absent,label,kettle,NA,NA_3,1,1377
Fs53,1,114,noise,absent,notCued,noise,NA,NA_1,1,1802
Fs53,1,115,noise,absent,notCued,noise,NA,NA_3,1,954
Fs53,1,116,noise,present,notCued,noise,iceskates,iceskates_2,1,2755
Fs53,1,117,incongruent,absent,label,laptop,NA,NA_1,1,2013.9999999999998
Fs53,1,118,incongruent,absent,label,accordion,NA,NA_1,1,1484
Fs53,1,119,incongruent,absent,label,wheelbarrow,NA,NA_2,1,4771
Fs53,1,120,incongruent,absent,label,coffin,NA,NA_2,1,1801
Fs53,1,121,noise,absent,notCued,noise,NA,NA_2,1,4661
Fs53,1,122,congruent,present,label,birdcage,birdcage,birdcage_2,1,3922
Fs53,1,123,noise,absent,notCued,noise,NA,NA_2,1,3392
Fs53,1,124,noise,present,notCued,noise,doorknocker,doorknocker_3,1,2861
Fs53,1,125,congruent,present,label,cooler,cooler,cooler_4,1,1272
Fs53,1,126,noise,absent,notCued,noise,NA,NA_1,1,4132
Fs53,1,127,congruent,present,label,tractor,tractor,tractor_1,1,1922
Fs53,1,128,congruent,present,label,vacuumcleaner,vacuumcleaner,vacuumcleaner_1,1,1484
Fs53,1,129,congruent,present,label,laudrybasket,laudrybasket,laudrybasket_3,1,4452
Fs53,1,130,noise,absent,notCued,noise,NA,NA_1,1,4027
Fs53,1,131,noise,present,notCued,noise,birdhouse,birdhouse_2,1,5194
Fs53,1,132,incongruent,absent,label,cooler,NA,NA_4,1,4769
Fs53,1,133,noise,absent,notCued,noise,NA,NA_1,1,4557
Fs53,1,134,incongruent,absent,label,sewingmachine,NA,NA_1,1,4343
Fs53,1,135,noise,present,notCued,noise,highchair,highchair_2,1,3599
Fs53,1,136,congruent,present,label,crown,crown,crown_1,1,2436
Fs53,1,137,noise,present,notCued,noise,leaf,leaf_2,0,2967
Fs53,1,138,noise,absent,notCued,noise,NA,NA_3,1,2331
Fs53,1,139,congruent,present,label,vacuumcleaner,vacuumcleaner,vacuumcleaner_2,1,3498
Fs53,1,140,noise,absent,notCued,noise,NA,NA_3,1,1803
Fs53,1,141,noise,absent,notCued,noise,NA,NA_3,1,2650
Fs53,1,142,noise,present,notCued,noise,coffin,coffin_4,1,2013.9999999999998
Fs53,1,143,incongruent,absent,label,eyeglasses,NA,NA_4,1,2331
Fs53,1,144,noise,absent,notCued,noise,NA,NA_2,1,2650
Fs53,1,145,noise,absent,notCued,noise,NA,NA_3,1,1589
Fs53,1,146,congruent,present,label,wheelchair,wheelchair,wheelchair_3,1,4982
Fs53,1,147,noise,present,notCued,noise,birdcage,birdcage_1,1,2967
Fs53,1,148,congruent,present,label,robot,robot,robot_3,1,4132
Fs53,1,149,incongruent,absent,label,eyeglasses,NA,NA_1,1,1483
Fs53,1,150,noise,present,notCued,noise,coffin,coffin_2,1,5087
Fs53,1,151,noise,present,notCued,noise,highchair,highchair_3,1,2224
Fs53,1,152,noise,absent,notCued,noise,NA,NA_2,1,1906
Fs53,1,153,congruent,present,label,wheelbarrow,wheelbarrow,wheelbarrow_3,1,2226
Fs53,1,154,noise,absent,notCued,noise,NA,NA_3,1,2226
Fs53,1,155,incongruent,absent,label,mailbox,NA,NA_2,1,1377
Fs53,1,156,congruent,present,label,toaster,toaster,toaster_4,1,6852
Fs53,1,157,congruent,present,label,accordion,accordion,accordion_2,1,4663
Fs53,1,158,noise,absent,notCued,noise,NA,NA_3,1,2013.9999999999998
Fs53,1,159,incongruent,absent,label,coffin,NA,NA_4,1,2120
Fs53,1,160,congruent,present,label,toaster,toaster,toaster_3,1,1484
Fs53,1,161,congruent,present,label,wheelbarrow,wheelbarrow,wheelbarrow_2,1,1590
Fs53,1,162,noise,present,notCued,noise,feather,feather_3,1,2439
Fs53,1,163,incongruent,absent,label,toaster,NA,NA_3,1,3496
Fs53,1,164,noise,absent,notCued,noise,NA,NA_4,1,2968
Fs53,1,165,congruent,present,label,typewriter,typewriter,typewriter_2,1,4133
Fs53,1,166,noise,absent,notCued,noise,NA,NA_2,1,3922
Fs53,1,167,congruent,present,label,wheelchair,wheelchair,wheelchair_2,1,2331
Fs53,1,168,noise,present,notCued,noise,coffeemaker,coffeemaker_2,1,2120
Fs53,1,169,noise,present,notCued,noise,fireplace,fireplace_1,1,3498
Fs53,1,170,incongruent,present,label,corkscrew,robot,robot_4,1,3709
Fs53,1,171,congruent,present,label,cashregister,cashregister,cashregister_2,1,2969
Fs53,1,172,noise,absent,notCued,noise,NA,NA_2,0,4343
Fs53,1,173,congruent,present,label,corset,corset,corset_2,1,3073
Fs53,1,174,incongruent,absent,label,doorknocker,NA,NA_1,1,3391
Fs53,1,175,noise,absent,notCued,noise,NA,NA_1,1,1907
Fs53,1,176,noise,absent,notCued,noise,NA,NA_4,1,2013.9999999999998
Fs53,1,177,noise,present,notCued,noise,pillow,pillow_3,1,1484
Fs53,1,178,noise,absent,notCued,noise,NA,NA_2,1,3391
Fs53,1,179,noise,present,notCued,noise,houseplant,houseplant_2,1,3286
Fs53,1,180,congruent,present,label,mailbox,mailbox,mailbox_4,1,1377
Fs53,1,181,incongruent,absent,label,kettle,NA,NA_2,1,3074
Fs53,1,182,noise,present,notCued,noise,pillow,pillow_4,1,2438
Fs53,1,183,noise,absent,notCued,noise,NA,NA_4,1,2225
Fs53,1,184,incongruent,absent,label,cooler,NA,NA_2,1,2119
Fs53,1,185,congruent,present,label,accordion,accordion,accordion_3,1,1166
Fs53,1,186,incongruent,absent,label,strainer,NA,NA_2,1,1166
Fs53,1,187,incongruent,absent,label,iceskates,NA,NA_3,1,1908
Fs53,1,188,noise,absent,notCued,noise,NA,NA_2,1,1696
Fs53,1,189,incongruent,present,label,tractor,feather,feather_4,1,2756
Fs53,1,190,congruent,present,label,strainer,strainer,strainer_4,0,4768
Fs53,1,191,incongruent,absent,label,swissarmyknife,NA,NA_2,1,1271
Fs53,1,192,noise,present,notCued,noise,leaf,leaf_3,1,2756
Fs53,1,193,incongruent,absent,label,robot,NA,NA_4,1,1060
Fs53,1,194,incongruent,absent,label,corkscrew,NA,NA_2,1,1908
Fs53,1,195,noise,present,notCued,noise,wheelbarrow,wheelbarrow_4,1,3708
Fs53,1,196,noise,absent,notCued,noise,NA,NA_4,1,3603
Fs53,1,197,noise,present,notCued,noise,typewriter,typewriter_4,1,4133
Fs53,1,198,noise,absent,notCued,noise,NA,NA_3,1,1696
Fs53,1,199,incongruent,absent,label,sink,NA,NA_3,1,1484
Fs53,1,200,noise,present,notCued,noise,anchor,anchor_3,1,2543
Fs53,1,201,noise,present,notCued,noise,sewingmachine,sewingmachine_4,1,6841
Fs53,1,202,noise,absent,notCued,noise,NA,NA_1,1,1059
Fs53,1,203,incongruent,absent,label,musicstand,NA,NA_2,1,2013.9999999999998
Fs53,1,204,noise,present,notCued,noise,laptop,laptop_2,1,1588
Fs53,1,205,incongruent,absent,label,doorknocker,NA,NA_3,1,2226
Fs53,1,206,incongruent,absent,label,laudrybasket,NA,NA_2,1,1800
Fs53,1,207,noise,present,notCued,noise,iceskates,iceskates_4,1,1484
Fs53,1,208,noise,absent,notCued,noise,NA,NA_4,1,847
Fs53,1,209,noise,absent,notCued,noise,NA,NA_4,1,1271
Fs53,1,210,noise,present,notCued,noise,sewingmachine,sewingmachine_3,1,2862
Fs53,1,211,noise,present,notCued,noise,wheelbarrow,wheelbarrow_1,1,1060
Fs53,1,212,noise,present,notCued,noise,highchair,highchair_4,1,3497
Fs53,1,213,noise,present,notCued,noise,crown,crown_2,1,2120
Fs53,1,214,noise,present,notCued,noise,cashregister,cashregister_3,1,1591
Fs53,1,215,incongruent,present,label,doorknocker,houseplant,houseplant_3,1,5300
Fs53,1,216,incongruent,present,label,vacuumcleaner,musicstand,musicstand_3,0,2967
Fs53,1,217,noise,present,notCued,noise,wheelchair,wheelchair_1,1,2755
Fs53,1,218,noise,present,notCued,noise,swissarmyknife,swissarmyknife_4,1,3177
Fs53,1,219,incongruent,absent,label,crown,NA,NA_2,1,1696
Fs53,1,220,noise,absent,notCued,noise,NA,NA_4,1,2013.9999999999998
Fs53,1,221,noise,present,notCued,noise,microphone,microphone_3,1,3285
Fs53,1,222,noise,absent,notCued,noise,NA,NA_1,1,742
Fs53,1,223,incongruent,absent,label,leaf,NA,NA_3,1,1166
Fs53,1,224,noise,absent,notCued,noise,NA,NA_1,1,1588
Fs53,1,225,noise,absent,notCued,noise,NA,NA_3,1,1059
Fs53,1,226,noise,absent,notCued,noise,NA,NA_3,1,742
Fs53,1,227,noise,present,notCued,noise,tractor,tractor_2,1,4482
Fs53,1,228,noise,absent,notCued,noise,NA,NA_3,1,1709
Fs53,1,229,noise,absent,notCued,noise,NA,NA_4,1,1060
Fs53,1,230,noise,absent,notCued,noise,NA,NA_1,1,954
Fs53,1,231,noise,present,notCued,noise,perfumebottle,perfumebottle_1,1,1377
Fs53,1,232,noise,present,notCued,noise,cooler,cooler_3,1,1060
Fs53,1,233,incongruent,absent,label,anchor,NA,NA_2,1,3073
Fs53,1,234,noise,absent,notCued,noise,NA,NA_1,1,953
Fs53,1,235,noise,absent,notCued,noise,NA,NA_1,1,848
Fs53,1,236,incongruent,absent,label,tupperwarecontainer,NA,NA_3,1,847
Fs53,1,237,incongruent,absent,label,eyeglasses,NA,NA_3,1,952
Fs53,1,238,noise,present,notCued,noise,leaf,leaf_1,0,2438
Fs53,1,239,incongruent,absent,label,iceskates,NA,NA_3,1,2330
Fs53,1,240,incongruent,absent,label,robot,NA,NA_3,1,3073
Fs53,1,241,noise,present,notCued,noise,pillow,pillow_2,1,2649
Fs53,1,242,noise,absent,notCued,noise,NA,NA_2,1,2860
Fs53,1,243,noise,present,notCued,noise,kettle,kettle_3,1,1376
Fs53,1,244,noise,absent,notCued,noise,NA,NA_3,1,1590
Fs53,1,245,congruent,present,label,kettle,kettle,kettle_2,1,1059
Fs53,1,246,congruent,present,label,swissarmyknife,swissarmyknife,swissarmyknife_2,1,1588
Fs53,1,247,incongruent,absent,label,typewriter,NA,NA_4,1,2650
Fs53,1,248,incongruent,present,label,coffin,cashregister,cashregister_4,1,3815
Fs53,1,249,incongruent,absent,label,accordion,NA,NA_1,1,3180
Fs53,1,250,noise,absent,notCued,noise,NA,NA_3,1,3497
Fs53,1,251,noise,present,notCued,noise,iceskates,iceskates_1,1,2649
Fs53,1,252,incongruent,absent,label,musicstand,NA,NA_1,1,2012
Fs53,1,253,noise,present,notCued,noise,robot,robot_1,1,1590
Fs53,1,254,noise,present,notCued,noise,strainer,strainer_3,1,1272
Fs53,1,255,congruent,present,label,corset,corset,corset_4,1,1060
Fs53,1,256,noise,present,notCued,noise,birdhouse,birdhouse_4,1,2437
Fs53,1,257,incongruent,absent,label,leaf,NA,NA_3,1,742
Fs53,1,258,congruent,present,label,birdcage,birdcage,birdcage_3,1,4768
Fs53,1,259,noise,absent,notCued,noise,NA,NA_2,1,1167
Fs53,1,260,incongruent,absent,label,laudrybasket,NA,NA_1,1,1378
Fs53,1,261,congruent,present,label,feather,feather,feather_1,1,1802
Fs53,1,262,noise,present,notCued,noise,corset,corset_1,1,2968
Fs53,1,263,congruent,present,label,eyeglasses,eyeglasses,eyeglasses_4,0,1908
Fs53,1,264,noise,present,notCued,noise,highchair,highchair_1,1,3709
Fs53,1,265,incongruent,absent,label,corkscrew,NA,NA_4,1,954
Fs53,1,266,noise,absent,notCued,noise,NA,NA_1,1,1166
Fs53,1,267,noise,present,notCued,noise,accordion,accordion_1,1,1802
Fs53,1,268,noise,absent,notCued,noise,NA,NA_3,1,1377
Fs53,1,269,congruent,present,label,microphone,microphone,microphone_1,1,2437
Fs53,1,270,congruent,present,label,swissarmyknife,swissarmyknife,swissarmyknife_3,1,1695
Fs53,1,271,incongruent,absent,label,vacuumcleaner,NA,NA_1,1,1484
Fs53,1,272,congruent,present,label,houseplant,houseplant,houseplant_4,1,1378
Fs53,1,273,noise,absent,notCued,noise,NA,NA_3,1,1906
Fs53,1,274,incongruent,absent,label,cashregister,NA,NA_4,1,1694
Fs53,1,275,congruent,present,label,doorknocker,doorknocker,doorknocker_2,1,1059
