participant,block,trial,condition,pic_presence,cue,prime,target,resp_acc,RT
s24_abj_fs4,1,1,noise,absent,notCued,noise,NA,0,1671
s24_abj_fs4,1,2,noise,present,notCued,noise,turtle,1,1816
s24_abj_fs4,1,3,congruent,present,label,zebra,zebra,0,2394
s24_abj_fs4,1,4,incongruent,absent,label,football,NA,1,1943
s24_abj_fs4,1,5,incongruent,absent,label,banana,NA,0,1814
s24_abj_fs4,1,6,incongruent,absent,label,turtle,NA,1,1939
s24_abj_fs4,1,7,noise,absent,notCued,noise,NA,0,1899
s24_abj_fs4,1,8,incongruent,present,label,kangaroo,turtle,0,2273
s24_abj_fs4,1,9,incongruent,absent,label,pumpkin,NA,1,2612
s24_abj_fs4,1,10,congruent,present,label,pumpkin,pumpkin,0,1886
s24_abj_fs4,1,11,congruent,present,label,rollingpin,rollingpin,1,1582
s24_abj_fs4,1,12,noise,present,notCued,noise,football,1,2564
s24_abj_fs4,1,13,incongruent,absent,label,kangaroo,NA,1,2080
s24_abj_fs4,1,14,incongruent,absent,label,zebra,NA,1,634
s24_abj_fs4,1,15,incongruent,absent,label,zebra,NA,0,1372
s24_abj_fs4,1,16,incongruent,absent,label,kangaroo,NA,1,2433
s24_abj_fs4,1,17,noise,absent,notCued,noise,NA,1,2129
s24_abj_fs4,1,18,noise,present,notCued,noise,swan,0,1161
s24_abj_fs4,1,19,noise,present,notCued,noise,turtle,0,2535
s24_abj_fs4,1,20,noise,present,notCued,noise,turtle,0,3270
s24_abj_fs4,1,21,incongruent,absent,label,football,NA,0,1814
s24_abj_fs4,1,22,congruent,present,label,zebra,zebra,1,2775
s24_abj_fs4,1,23,noise,absent,notCued,noise,NA,1,3061
s24_abj_fs4,1,24,noise,absent,notCued,noise,NA,1,2281
s24_abj_fs4,1,25,noise,present,notCued,noise,zebra,0,422
s24_abj_fs4,1,26,incongruent,absent,label,swan,NA,1,1953
s24_abj_fs4,1,27,congruent,present,label,football,football,0,1877
s24_abj_fs4,1,28,noise,present,notCued,noise,rollingpin,0,1956
s24_abj_fs4,1,29,noise,absent,notCued,noise,NA,1,1859
s24_abj_fs4,1,30,noise,present,notCued,noise,kangaroo,0,2227
s24_abj_fs4,1,31,congruent,present,label,turtle,turtle,0,2101
s24_abj_fs4,1,32,noise,present,notCued,noise,rollingpin,0,1910
s24_abj_fs4,1,33,noise,present,notCued,noise,kangaroo,0,2339
s24_abj_fs4,1,34,noise,absent,notCued,noise,NA,1,2147
s24_abj_fs4,1,35,noise,present,notCued,noise,kangaroo,1,2375
s24_abj_fs4,1,36,congruent,present,label,banana,banana,0,1940
s24_abj_fs4,1,37,incongruent,absent,label,zebra,NA,1,1478
s24_abj_fs4,1,38,incongruent,absent,label,swan,NA,1,211
s24_abj_fs4,1,39,noise,present,notCued,noise,swan,0,2123
s24_abj_fs4,1,40,noise,absent,notCued,noise,NA,1,1957
s24_abj_fs4,1,41,noise,absent,notCued,noise,NA,1,1944
s24_abj_fs4,1,42,incongruent,present,label,football,rollingpin,0,1888
s24_abj_fs4,1,43,incongruent,present,label,zebra,kangaroo,1,3159
s24_abj_fs4,1,44,congruent,present,label,banana,banana,0,2149
s24_abj_fs4,1,45,noise,present,notCued,noise,kangaroo,0,1925
s24_abj_fs4,1,46,noise,absent,notCued,noise,NA,1,1895
s24_abj_fs4,1,47,congruent,present,label,turtle,turtle,0,1957
s24_abj_fs4,1,48,incongruent,absent,label,banana,NA,1,2519
s24_abj_fs4,1,49,congruent,present,label,kangaroo,kangaroo,0,2529
s24_abj_fs4,1,50,noise,absent,notCued,noise,NA,1,1160
s24_abj_fs4,1,51,noise,present,notCued,noise,zebra,0,423
s24_abj_fs4,1,52,noise,absent,notCued,noise,NA,1,528
s24_abj_fs4,1,53,noise,absent,notCued,noise,NA,1,1858
s24_abj_fs4,1,54,congruent,present,label,pumpkin,pumpkin,0,1934
s24_abj_fs4,1,55,incongruent,absent,label,turtle,NA,1,2592
s24_abj_fs4,1,56,noise,present,notCued,noise,pumpkin,0,642
s24_abj_fs4,1,57,noise,present,notCued,noise,football,0,738
s24_abj_fs4,1,58,noise,absent,notCued,noise,NA,1,318
s24_abj_fs4,1,59,noise,present,notCued,noise,pumpkin,0,321
s24_abj_fs4,1,60,incongruent,absent,label,kangaroo,NA,1,3442
s24_abj_fs4,1,61,noise,present,notCued,noise,pumpkin,0,2174
s24_abj_fs4,1,62,noise,present,notCued,noise,banana,0,1827
s24_abj_fs4,1,63,noise,absent,notCued,noise,NA,1,1879
s24_abj_fs4,1,64,noise,present,notCued,noise,banana,0,1583
s24_abj_fs4,1,65,congruent,present,label,football,football,0,1627
s24_abj_fs4,1,66,noise,absent,notCued,noise,NA,1,950
s24_abj_fs4,1,67,incongruent,absent,label,swan,NA,1,1054
s24_abj_fs4,1,68,noise,absent,notCued,noise,NA,1,1869
s24_abj_fs4,1,69,congruent,present,label,swan,swan,0,1373
s24_abj_fs4,1,70,noise,absent,notCued,noise,NA,1,2266
s24_abj_fs4,1,71,noise,absent,notCued,noise,NA,1,1990
s24_abj_fs4,1,72,incongruent,absent,label,rollingpin,NA,1,1163
s24_abj_fs4,1,73,congruent,present,label,pumpkin,pumpkin,0,642
s24_abj_fs4,1,74,noise,present,notCued,noise,pumpkin,0,1605
s24_abj_fs4,1,75,congruent,present,label,zebra,zebra,0,1582
s24_abj_fs4,1,76,incongruent,absent,label,pumpkin,NA,1,1844
s24_abj_fs4,1,77,noise,absent,notCued,noise,NA,1,734
s24_abj_fs4,1,78,noise,present,notCued,noise,banana,0,1582
s24_abj_fs4,1,79,congruent,present,label,zebra,zebra,0,1838
s24_abj_fs4,1,80,noise,absent,notCued,noise,NA,1,1969
s24_abj_fs4,1,81,noise,absent,notCued,noise,NA,1,2823
s24_abj_fs4,1,82,congruent,present,label,banana,banana,1,2616
s24_abj_fs4,1,83,congruent,present,label,swan,swan,0,2017
s24_abj_fs4,1,84,incongruent,absent,label,pumpkin,NA,1,2004
s24_abj_fs4,1,85,noise,present,notCued,noise,zebra,1,2789
s24_abj_fs4,1,86,noise,present,notCued,noise,swan,0,1882
s24_abj_fs4,1,87,noise,absent,notCued,noise,NA,1,1891
s24_abj_fs4,1,88,noise,present,notCued,noise,swan,0,1373
s24_abj_fs4,1,89,noise,absent,notCued,noise,NA,1,2961
s24_abj_fs4,1,90,incongruent,absent,label,football,NA,1,1909
s24_abj_fs4,1,91,noise,absent,notCued,noise,NA,1,1892
s24_abj_fs4,1,92,noise,present,notCued,noise,banana,0,1861
s24_abj_fs4,1,93,noise,present,notCued,noise,football,0,1859
s24_abj_fs4,1,94,incongruent,absent,label,kangaroo,NA,1,1906
s24_abj_fs4,1,95,noise,present,notCued,noise,swan,0,1957
s24_abj_fs4,1,96,incongruent,absent,label,pumpkin,NA,1,1910
s24_abj_fs4,1,97,noise,absent,notCued,noise,NA,1,1957
s24_abj_fs4,1,98,noise,present,notCued,noise,turtle,0,1892
s24_abj_fs4,1,99,noise,absent,notCued,noise,NA,1,2084
s24_abj_fs4,1,100,incongruent,absent,label,zebra,NA,1,2501
s24_abj_fs4,1,101,incongruent,present,label,swan,zebra,0,1891
s24_abj_fs4,1,102,congruent,present,label,swan,swan,0,1825
s24_abj_fs4,1,103,noise,absent,notCued,noise,NA,1,1880
s24_abj_fs4,1,104,noise,present,notCued,noise,rollingpin,1,2742
s24_abj_fs4,1,105,noise,absent,notCued,noise,NA,1,1945
s24_abj_fs4,1,106,congruent,present,label,kangaroo,kangaroo,0,1907
s24_abj_fs4,1,107,noise,present,notCued,noise,turtle,1,2629
s24_abj_fs4,1,108,congruent,present,label,turtle,turtle,0,2071
s24_abj_fs4,1,109,noise,absent,notCued,noise,NA,1,1941
s24_abj_fs4,1,110,incongruent,absent,label,rollingpin,NA,1,2049
s24_abj_fs4,1,111,congruent,present,label,football,football,0,1924
s24_abj_fs4,1,112,noise,absent,notCued,noise,NA,1,1814
s24_abj_fs4,1,113,incongruent,present,label,banana,swan,0,1829
s24_abj_fs4,1,114,congruent,present,label,banana,banana,0,2072
s24_abj_fs4,1,115,incongruent,absent,label,banana,NA,1,1910
s24_abj_fs4,1,116,congruent,present,label,football,football,1,2658
s24_abj_fs4,1,117,incongruent,absent,label,rollingpin,NA,1,1957
s24_abj_fs4,1,118,noise,absent,notCued,noise,NA,1,1371
s24_abj_fs4,1,119,noise,absent,notCued,noise,NA,1,2323
s24_abj_fs4,1,120,noise,present,notCued,noise,kangaroo,0,1909
s24_abj_fs4,1,121,incongruent,absent,label,turtle,NA,1,1828
s24_abj_fs4,1,122,congruent,present,label,kangaroo,kangaroo,0,1904
s24_abj_fs4,1,123,incongruent,present,label,rollingpin,football,0,1905
s24_abj_fs4,1,124,noise,present,notCued,noise,zebra,0,2100
s24_abj_fs4,1,125,congruent,present,label,pumpkin,pumpkin,0,2366
s24_abj_fs4,1,126,incongruent,absent,label,turtle,NA,1,1942
s24_abj_fs4,1,127,congruent,present,label,kangaroo,kangaroo,1,2689
s24_abj_fs4,1,128,incongruent,absent,label,football,NA,1,2531
s24_abj_fs4,1,129,incongruent,absent,label,kangaroo,NA,1,1972
s24_abj_fs4,1,130,noise,present,notCued,noise,rollingpin,1,2035
s24_abj_fs4,1,131,congruent,present,label,rollingpin,rollingpin,1,1983
s24_abj_fs4,1,132,noise,absent,notCued,noise,NA,1,2136
s24_abj_fs4,1,133,noise,present,notCued,noise,rollingpin,1,1557
s24_abj_fs4,1,134,noise,absent,notCued,noise,NA,1,1766
s24_abj_fs4,1,135,incongruent,absent,label,football,NA,1,1582
s24_abj_fs4,1,136,noise,absent,notCued,noise,NA,1,1756
s24_abj_fs4,1,137,incongruent,absent,label,turtle,NA,1,1811
s24_abj_fs4,1,138,incongruent,absent,label,rollingpin,NA,1,1711
s24_abj_fs4,1,139,noise,present,notCued,noise,football,1,2212
s24_abj_fs4,1,140,incongruent,absent,label,banana,NA,1,4070
s24_abj_fs4,1,141,incongruent,absent,label,swan,NA,1,1874
s24_abj_fs4,1,142,incongruent,absent,label,zebra,NA,1,1831
s24_abj_fs4,1,143,noise,absent,notCued,noise,NA,1,1584
s24_abj_fs4,1,144,congruent,present,label,swan,swan,1,2667
s24_abj_fs4,1,145,incongruent,present,label,zebra,banana,0,1864
s24_abj_fs4,1,146,noise,present,notCued,noise,pumpkin,1,2415
s24_abj_fs4,1,147,noise,present,notCued,noise,banana,0,1668
s24_abj_fs4,1,148,noise,absent,notCued,noise,NA,1,1266
s24_abj_fs4,1,149,incongruent,absent,label,swan,NA,1,1770
s24_abj_fs4,1,150,incongruent,absent,label,kangaroo,NA,1,1372
s24_abj_fs4,1,151,noise,absent,notCued,noise,NA,1,1676
s24_abj_fs4,1,152,incongruent,present,label,football,pumpkin,1,2526
s24_abj_fs4,1,153,noise,present,notCued,noise,zebra,0,1892
s24_abj_fs4,1,154,congruent,present,label,rollingpin,rollingpin,1,2068
s24_abj_fs4,1,155,noise,present,notCued,noise,football,1,2195
s24_abj_fs4,1,156,noise,absent,notCued,noise,NA,1,1780
s24_abj_fs4,1,157,congruent,present,label,turtle,turtle,0,2419
s24_abj_fs4,1,158,congruent,present,label,rollingpin,rollingpin,1,1372
s24_abj_fs4,1,159,incongruent,absent,label,pumpkin,NA,1,1267
s24_abj_fs4,1,160,incongruent,absent,label,swan,NA,1,1480
s24_abj_fs4,2,1,noise,absent,notCued,noise,NA,1,1267
s24_abj_fs4,2,2,congruent,present,label,football,football,1,1596
s24_abj_fs4,2,3,congruent,present,label,rollingpin,rollingpin,1,633
s24_abj_fs4,2,4,incongruent,absent,label,swan,NA,1,2463
s24_abj_fs4,2,5,incongruent,absent,label,turtle,NA,1,1752
s24_abj_fs4,2,6,noise,present,notCued,noise,rollingpin,1,1370
s24_abj_fs4,2,7,congruent,present,label,zebra,zebra,1,1527
s24_abj_fs4,2,8,congruent,present,label,rollingpin,rollingpin,1,739
s24_abj_fs4,2,9,noise,present,notCued,noise,zebra,1,1371
s24_abj_fs4,2,10,noise,absent,notCued,noise,NA,1,1877
s24_abj_fs4,2,11,noise,absent,notCued,noise,NA,1,1477
s24_abj_fs4,2,12,incongruent,absent,label,kangaroo,NA,1,1266
s24_abj_fs4,2,13,incongruent,absent,label,kangaroo,NA,1,1058
s24_abj_fs4,2,14,noise,present,notCued,noise,football,1,1745
s24_abj_fs4,2,15,noise,present,notCued,noise,turtle,0,1733
s24_abj_fs4,2,16,incongruent,absent,label,turtle,NA,1,1161
s24_abj_fs4,2,17,congruent,present,label,kangaroo,kangaroo,1,1744
s24_abj_fs4,2,18,incongruent,absent,label,rollingpin,NA,1,951
s24_abj_fs4,2,19,congruent,present,label,zebra,zebra,1,1162
s24_abj_fs4,2,20,congruent,present,label,rollingpin,rollingpin,1,949
s24_abj_fs4,2,21,congruent,present,label,turtle,turtle,0,1056
s24_abj_fs4,2,22,noise,present,notCued,noise,rollingpin,1,1585
s24_abj_fs4,2,23,noise,present,notCued,noise,turtle,0,1267
s24_abj_fs4,2,24,congruent,present,label,pumpkin,pumpkin,0,1070
s24_abj_fs4,2,25,incongruent,absent,label,pumpkin,NA,1,951
s24_abj_fs4,2,26,incongruent,absent,label,swan,NA,1,1372
s24_abj_fs4,2,27,incongruent,absent,label,kangaroo,NA,1,1055
s24_abj_fs4,2,28,incongruent,absent,label,zebra,NA,1,1053
s24_abj_fs4,2,29,noise,absent,notCued,noise,NA,1,1056
s24_abj_fs4,2,30,incongruent,absent,label,turtle,NA,1,952
s24_abj_fs4,2,31,noise,present,notCued,noise,football,0,1371
s24_abj_fs4,2,32,congruent,present,label,kangaroo,kangaroo,0,1267
s24_abj_fs4,2,33,incongruent,absent,label,rollingpin,NA,1,846
s24_abj_fs4,2,34,congruent,present,label,swan,swan,1,1373
s24_abj_fs4,2,35,noise,absent,notCued,noise,NA,1,1055
s24_abj_fs4,2,36,incongruent,absent,label,pumpkin,NA,1,1160
s24_abj_fs4,2,37,incongruent,absent,label,zebra,NA,1,1161
s24_abj_fs4,2,38,noise,present,notCued,noise,zebra,1,1372
s24_abj_fs4,2,39,incongruent,absent,label,swan,NA,1,1054
s24_abj_fs4,2,40,noise,absent,notCued,noise,NA,1,1055
s24_abj_fs4,2,41,congruent,present,label,swan,swan,1,1584
s24_abj_fs4,2,42,noise,present,notCued,noise,kangaroo,0,1162
s24_abj_fs4,2,43,noise,present,notCued,noise,rollingpin,1,1373
s24_abj_fs4,2,44,noise,present,notCued,noise,swan,1,1923
s24_abj_fs4,2,45,noise,present,notCued,noise,banana,0,1266
s24_abj_fs4,2,46,noise,present,notCued,noise,kangaroo,0,1266
s24_abj_fs4,2,47,noise,present,notCued,noise,pumpkin,0,1070
s24_abj_fs4,2,48,noise,present,notCued,noise,pumpkin,1,1177
s24_abj_fs4,2,49,noise,absent,notCued,noise,NA,1,847
s24_abj_fs4,2,50,congruent,present,label,rollingpin,rollingpin,1,845
s24_abj_fs4,2,51,congruent,present,label,turtle,turtle,1,1372
s24_abj_fs4,2,52,noise,present,notCued,noise,rollingpin,1,1056
s24_abj_fs4,2,53,noise,absent,notCued,noise,NA,1,1163
s24_abj_fs4,2,54,incongruent,absent,label,banana,NA,1,1372
s24_abj_fs4,2,55,noise,present,notCued,noise,kangaroo,1,1712
s24_abj_fs4,2,56,incongruent,present,label,football,rollingpin,1,1509
s24_abj_fs4,2,57,noise,absent,notCued,noise,NA,1,1057
s24_abj_fs4,2,58,congruent,present,label,banana,banana,0,1478
s24_abj_fs4,2,59,noise,present,notCued,noise,zebra,1,1374
s24_abj_fs4,2,60,incongruent,absent,label,football,NA,1,1876
s24_abj_fs4,2,61,congruent,present,label,pumpkin,pumpkin,1,1678
s24_abj_fs4,2,62,congruent,present,label,football,football,1,1371
s24_abj_fs4,2,63,noise,absent,notCued,noise,NA,1,1477
s24_abj_fs4,2,64,incongruent,present,label,kangaroo,turtle,1,1687
s24_abj_fs4,2,65,noise,present,notCued,noise,football,1,2133
s24_abj_fs4,2,66,congruent,present,label,pumpkin,pumpkin,1,1391
s24_abj_fs4,2,67,congruent,present,label,banana,banana,0,1833
s24_abj_fs4,2,68,congruent,present,label,kangaroo,kangaroo,0,2372
s24_abj_fs4,2,69,noise,present,notCued,noise,banana,0,1667
s24_abj_fs4,2,70,incongruent,present,label,football,pumpkin,1,2862
s24_abj_fs4,2,71,noise,absent,notCued,noise,NA,1,1055
s24_abj_fs4,2,72,incongruent,absent,label,football,NA,1,845
s24_abj_fs4,2,73,noise,absent,notCued,noise,NA,1,846
s24_abj_fs4,2,74,noise,present,notCued,noise,kangaroo,0,1369
s24_abj_fs4,2,75,noise,absent,notCued,noise,NA,1,738
s24_abj_fs4,2,76,incongruent,absent,label,swan,NA,1,1055
s24_abj_fs4,2,77,congruent,present,label,turtle,turtle,0,1531
s24_abj_fs4,2,78,noise,absent,notCued,noise,NA,1,1161
s24_abj_fs4,2,79,incongruent,present,label,zebra,kangaroo,0,1478
s24_abj_fs4,2,80,incongruent,absent,label,pumpkin,NA,1,845
s24_abj_fs4,2,81,noise,absent,notCued,noise,NA,1,1525
s24_abj_fs4,2,82,incongruent,absent,label,football,NA,1,844
s24_abj_fs4,2,83,noise,absent,notCued,noise,NA,1,844
s24_abj_fs4,2,84,noise,absent,notCued,noise,NA,1,735
s24_abj_fs4,2,85,noise,present,notCued,noise,football,0,528
s24_abj_fs4,2,86,incongruent,absent,label,banana,NA,1,739
s24_abj_fs4,2,87,congruent,present,label,swan,swan,0,1538
s24_abj_fs4,2,88,noise,present,notCued,noise,banana,0,1160
s24_abj_fs4,2,89,incongruent,absent,label,zebra,NA,1,4070
s24_abj_fs4,2,90,noise,present,notCued,noise,swan,1,1784
s24_abj_fs4,2,91,noise,absent,notCued,noise,NA,1,2822
s24_abj_fs4,2,92,congruent,present,label,swan,swan,1,2018
s24_abj_fs4,2,93,noise,present,notCued,noise,football,1,2120
s24_abj_fs4,2,94,noise,absent,notCued,noise,NA,1,950
s24_abj_fs4,2,95,incongruent,absent,label,rollingpin,NA,1,1472
s24_abj_fs4,2,96,noise,present,notCued,noise,banana,0,1887
s24_abj_fs4,2,97,incongruent,absent,label,turtle,NA,1,1055
s24_abj_fs4,2,98,noise,present,notCued,noise,pumpkin,1,1976
s24_abj_fs4,2,99,noise,absent,notCued,noise,NA,1,847
s24_abj_fs4,2,100,noise,absent,notCued,noise,NA,1,844
s24_abj_fs4,2,101,incongruent,present,label,zebra,banana,0,1265
s24_abj_fs4,2,102,congruent,present,label,football,football,0,1160
s24_abj_fs4,2,103,incongruent,absent,label,kangaroo,NA,1,1480
s24_abj_fs4,2,104,noise,absent,notCued,noise,NA,1,1897
s24_abj_fs4,2,105,noise,absent,notCued,noise,NA,1,1371
s24_abj_fs4,2,106,noise,present,notCued,noise,pumpkin,1,3373
s24_abj_fs4,2,107,incongruent,absent,label,zebra,NA,1,1163
s24_abj_fs4,2,108,congruent,present,label,turtle,turtle,1,2644
s24_abj_fs4,2,109,noise,present,notCued,noise,zebra,1,3316
s24_abj_fs4,2,110,noise,absent,notCued,noise,NA,1,2740
s24_abj_fs4,2,111,incongruent,absent,label,kangaroo,NA,1,950
s24_abj_fs4,2,112,noise,present,notCued,noise,pumpkin,1,4141
s24_abj_fs4,2,113,congruent,present,label,football,football,1,3782
s24_abj_fs4,2,114,noise,absent,notCued,noise,NA,1,2166
s24_abj_fs4,2,115,incongruent,absent,label,football,NA,1,1583
s24_abj_fs4,2,116,incongruent,absent,label,football,NA,1,1473
s24_abj_fs4,2,117,noise,present,notCued,noise,swan,1,2999
s24_abj_fs4,2,118,noise,absent,notCued,noise,NA,1,1371
s24_abj_fs4,2,119,noise,present,notCued,noise,zebra,1,3313
s24_abj_fs4,2,120,congruent,present,label,banana,banana,0,3879
s24_abj_fs4,2,121,incongruent,present,label,rollingpin,football,0,2178
s24_abj_fs4,2,122,noise,present,notCued,noise,swan,0,3446
s24_abj_fs4,2,123,noise,present,notCued,noise,turtle,1,2565
s24_abj_fs4,2,124,incongruent,absent,label,banana,NA,1,1583
s24_abj_fs4,2,125,noise,absent,notCued,noise,NA,1,949
s24_abj_fs4,2,126,noise,absent,notCued,noise,NA,1,1161
s24_abj_fs4,2,127,incongruent,absent,label,kangaroo,NA,1,1266
s24_abj_fs4,2,128,noise,present,notCued,noise,rollingpin,1,2631
s24_abj_fs4,2,129,noise,present,notCued,noise,turtle,0,2981
s24_abj_fs4,2,130,noise,absent,notCued,noise,NA,1,1372
s24_abj_fs4,2,131,noise,absent,notCued,noise,NA,1,1372
s24_abj_fs4,2,132,noise,absent,notCued,noise,NA,1,1267
s24_abj_fs4,2,133,noise,present,notCued,noise,turtle,1,4503
s24_abj_fs4,2,134,noise,present,notCued,noise,kangaroo,1,3077
s24_abj_fs4,2,135,incongruent,present,label,swan,zebra,1,2831
s24_abj_fs4,2,136,noise,absent,notCued,noise,NA,1,1558
s24_abj_fs4,2,137,incongruent,present,label,banana,swan,1,2567
s24_abj_fs4,2,138,noise,absent,notCued,noise,NA,1,1160
s24_abj_fs4,2,139,incongruent,absent,label,turtle,NA,1,845
s24_abj_fs4,2,140,noise,absent,notCued,noise,NA,1,1954
s24_abj_fs4,2,141,noise,absent,notCued,noise,NA,1,1163
s24_abj_fs4,2,142,congruent,present,label,zebra,zebra,0,4789
s24_abj_fs4,2,143,incongruent,absent,label,swan,NA,1,1999
s24_abj_fs4,2,144,noise,absent,notCued,noise,NA,1,1797
s24_abj_fs4,2,145,congruent,present,label,kangaroo,kangaroo,1,3375
s24_abj_fs4,2,146,noise,present,notCued,noise,banana,1,2998
s24_abj_fs4,2,147,incongruent,absent,label,rollingpin,NA,1,3491
s24_abj_fs4,2,148,incongruent,absent,label,pumpkin,NA,1,1478
s24_abj_fs4,2,149,incongruent,absent,label,swan,NA,1,1479
s24_abj_fs4,2,150,incongruent,absent,label,zebra,NA,1,1893
s24_abj_fs4,2,151,noise,absent,notCued,noise,NA,1,1685
s24_abj_fs4,2,152,congruent,present,label,zebra,zebra,1,2632
s24_abj_fs4,2,153,noise,absent,notCued,noise,NA,1,1925
s24_abj_fs4,2,154,congruent,present,label,banana,banana,1,2164
s24_abj_fs4,2,155,noise,absent,notCued,noise,NA,1,2630
s24_abj_fs4,2,156,noise,absent,notCued,noise,NA,1,1767
s24_abj_fs4,2,157,noise,present,notCued,noise,swan,1,3239
s24_abj_fs4,2,158,congruent,present,label,pumpkin,pumpkin,0,2734
s24_abj_fs4,2,159,incongruent,absent,label,banana,NA,1,2168
s24_abj_fs4,2,160,incongruent,absent,label,pumpkin,NA,1,1373
s26_jv_fs4,1,1,noise,absent,notCued,noise,NA,1,3515
s26_jv_fs4,1,2,incongruent,absent,label,zebra,NA,1,4028
s26_jv_fs4,1,3,incongruent,absent,label,pumpkin,NA,1,7415
s26_jv_fs4,1,4,noise,absent,notCued,noise,NA,1,3898
s26_jv_fs4,1,5,incongruent,absent,label,swan,NA,1,5842
s26_jv_fs4,1,6,congruent,present,label,turtle,turtle,0,4568
s26_jv_fs4,1,7,noise,absent,notCued,noise,NA,1,3656
s26_jv_fs4,1,8,noise,present,notCued,noise,banana,1,2517
s26_jv_fs4,1,9,congruent,present,label,turtle,turtle,0,3321
s26_jv_fs4,1,10,noise,absent,notCued,noise,NA,1,3144
s26_jv_fs4,1,11,incongruent,absent,label,zebra,NA,1,2958
s26_jv_fs4,1,12,noise,absent,notCued,noise,NA,1,4617
s26_jv_fs4,1,13,noise,absent,notCued,noise,NA,1,3949
s26_jv_fs4,1,14,congruent,present,label,rollingpin,rollingpin,1,2071
s26_jv_fs4,1,15,noise,present,notCued,noise,banana,1,2555
s26_jv_fs4,1,16,noise,absent,notCued,noise,NA,1,2904
s26_jv_fs4,1,17,congruent,present,label,pumpkin,pumpkin,0,3325
s26_jv_fs4,1,18,incongruent,absent,label,kangaroo,NA,1,2389
s26_jv_fs4,1,19,noise,absent,notCued,noise,NA,1,2105
s26_jv_fs4,1,20,incongruent,present,label,kangaroo,rollingpin,1,2677
s26_jv_fs4,1,21,noise,present,notCued,noise,turtle,0,4698
s26_jv_fs4,1,22,noise,present,notCued,noise,kangaroo,1,3866
s26_jv_fs4,1,23,incongruent,absent,label,rollingpin,NA,1,3527
s26_jv_fs4,1,24,noise,absent,notCued,noise,NA,1,2919
s26_jv_fs4,1,25,incongruent,absent,label,zebra,NA,1,4251
s26_jv_fs4,1,26,noise,absent,notCued,noise,NA,0,3721
s26_jv_fs4,1,27,congruent,present,label,swan,swan,1,3396
s26_jv_fs4,1,28,incongruent,absent,label,turtle,NA,1,6726
s26_jv_fs4,1,29,incongruent,absent,label,rollingpin,NA,1,2423
s26_jv_fs4,1,30,noise,absent,notCued,noise,NA,0,2842
s26_jv_fs4,1,31,noise,absent,notCued,noise,NA,1,4703
s26_jv_fs4,1,32,noise,absent,notCued,noise,NA,1,2619
s26_jv_fs4,1,33,noise,absent,notCued,noise,NA,1,2120
s26_jv_fs4,1,34,incongruent,present,label,football,zebra,0,5159
s26_jv_fs4,1,35,incongruent,present,label,zebra,kangaroo,0,2683
s26_jv_fs4,1,36,congruent,present,label,football,football,0,2535
s26_jv_fs4,1,37,congruent,present,label,turtle,turtle,0,4755
s26_jv_fs4,1,38,congruent,present,label,rollingpin,rollingpin,1,2102
s26_jv_fs4,1,39,noise,absent,notCued,noise,NA,1,2346
s26_jv_fs4,1,40,noise,present,notCued,noise,zebra,0,2249
s26_jv_fs4,1,41,congruent,present,label,football,football,0,1912
s26_jv_fs4,1,42,noise,present,notCued,noise,zebra,0,2475
s26_jv_fs4,1,43,noise,absent,notCued,noise,NA,1,2169
s26_jv_fs4,1,44,incongruent,absent,label,football,NA,1,2318
s26_jv_fs4,1,45,congruent,present,label,turtle,turtle,1,2105
s26_jv_fs4,1,46,incongruent,absent,label,banana,NA,1,2475
s26_jv_fs4,1,47,congruent,present,label,banana,banana,1,1265
s26_jv_fs4,1,48,noise,present,notCued,noise,pumpkin,0,1999
s26_jv_fs4,1,49,incongruent,absent,label,swan,NA,1,2342
s26_jv_fs4,1,50,noise,absent,notCued,noise,NA,1,2300
s26_jv_fs4,1,51,noise,present,notCued,noise,swan,1,1947
s26_jv_fs4,1,52,noise,present,notCued,noise,zebra,0,2105
s26_jv_fs4,1,53,noise,present,notCued,noise,zebra,1,2393
s26_jv_fs4,1,54,noise,present,notCued,noise,banana,0,2648
s26_jv_fs4,1,55,noise,present,notCued,noise,kangaroo,1,1894
s26_jv_fs4,1,56,incongruent,present,label,football,turtle,0,2808
s26_jv_fs4,1,57,noise,absent,notCued,noise,NA,1,3051
s26_jv_fs4,1,58,incongruent,absent,label,banana,NA,1,3514
s26_jv_fs4,1,59,incongruent,absent,label,banana,NA,0,2378
s26_jv_fs4,1,60,noise,absent,notCued,noise,NA,1,2138
s26_jv_fs4,1,61,noise,present,notCued,noise,turtle,0,2264
s26_jv_fs4,1,62,noise,absent,notCued,noise,NA,0,1262
s26_jv_fs4,1,63,noise,absent,notCued,noise,NA,0,948
s26_jv_fs4,1,64,noise,absent,notCued,noise,NA,1,1895
s26_jv_fs4,1,65,noise,absent,notCued,noise,NA,1,1946
s26_jv_fs4,1,66,congruent,present,label,swan,swan,1,1262
s26_jv_fs4,1,67,congruent,present,label,banana,banana,1,2088
s26_jv_fs4,1,68,noise,absent,notCued,noise,NA,1,1851
s26_jv_fs4,1,69,noise,present,notCued,noise,football,0,1673
s26_jv_fs4,1,70,noise,present,notCued,noise,pumpkin,0,1935
s26_jv_fs4,1,71,noise,present,notCued,noise,swan,1,1581
s26_jv_fs4,1,72,incongruent,absent,label,turtle,NA,1,2280
s26_jv_fs4,1,73,noise,absent,notCued,noise,NA,1,1152
s26_jv_fs4,1,74,noise,present,notCued,noise,turtle,0,1160
s26_jv_fs4,1,75,noise,absent,notCued,noise,NA,1,2804
s26_jv_fs4,1,76,congruent,present,label,rollingpin,rollingpin,1,1264
s26_jv_fs4,1,77,noise,present,notCued,noise,football,0,1264
s26_jv_fs4,1,78,incongruent,absent,label,football,NA,1,2176
s26_jv_fs4,1,79,congruent,present,label,kangaroo,kangaroo,0,1906
s26_jv_fs4,1,80,noise,present,notCued,noise,swan,0,1369
s26_jv_fs4,1,81,congruent,present,label,kangaroo,kangaroo,0,1580
s26_jv_fs4,1,82,noise,present,notCued,noise,swan,0,3026
s26_jv_fs4,1,83,congruent,present,label,rollingpin,rollingpin,0,948
s26_jv_fs4,1,84,noise,present,notCued,noise,kangaroo,0,2313
s26_jv_fs4,1,85,noise,absent,notCued,noise,NA,1,2054
s26_jv_fs4,1,86,incongruent,absent,label,banana,NA,1,1960
s26_jv_fs4,1,87,noise,present,notCued,noise,banana,0,2362
s26_jv_fs4,1,88,incongruent,absent,label,pumpkin,NA,1,2888
s26_jv_fs4,1,89,noise,present,notCued,noise,pumpkin,0,1934
s26_jv_fs4,1,90,congruent,present,label,football,football,0,2231
s26_jv_fs4,1,91,incongruent,absent,label,kangaroo,NA,1,2453
s26_jv_fs4,1,92,noise,absent,notCued,noise,NA,1,2215
s26_jv_fs4,1,93,noise,absent,notCued,noise,NA,1,2152
s26_jv_fs4,1,94,incongruent,absent,label,banana,NA,1,2043
s26_jv_fs4,1,95,incongruent,present,label,football,swan,0,3067
s26_jv_fs4,1,96,incongruent,absent,label,football,NA,1,2265
s26_jv_fs4,1,97,noise,absent,notCued,noise,NA,1,2072
s26_jv_fs4,1,98,congruent,present,label,zebra,zebra,0,2282
s26_jv_fs4,1,99,noise,present,notCued,noise,rollingpin,0,2326
s26_jv_fs4,1,100,incongruent,absent,label,kangaroo,NA,1,2069
s26_jv_fs4,1,101,incongruent,absent,label,rollingpin,NA,1,2660
s26_jv_fs4,1,102,incongruent,absent,label,banana,NA,0,2264
s26_jv_fs4,1,103,noise,absent,notCued,noise,NA,0,2233
s26_jv_fs4,1,104,noise,present,notCued,noise,rollingpin,0,2570
s26_jv_fs4,1,105,incongruent,absent,label,zebra,NA,1,2120
s26_jv_fs4,1,106,noise,present,notCued,noise,kangaroo,0,2184
s26_jv_fs4,1,107,noise,present,notCued,noise,football,0,2153
s26_jv_fs4,1,108,noise,present,notCued,noise,rollingpin,0,2505
s26_jv_fs4,1,109,incongruent,present,label,football,banana,0,3752
s26_jv_fs4,1,110,congruent,present,label,kangaroo,kangaroo,0,1892
s26_jv_fs4,1,111,noise,present,notCued,noise,football,0,2075
s26_jv_fs4,1,112,noise,absent,notCued,noise,NA,1,2187
s26_jv_fs4,1,113,incongruent,absent,label,football,NA,0,1527
s26_jv_fs4,1,114,noise,present,notCued,noise,swan,1,1054
s26_jv_fs4,1,115,congruent,present,label,banana,banana,1,1160
s26_jv_fs4,1,116,incongruent,absent,label,swan,NA,1,1912
s26_jv_fs4,1,117,incongruent,absent,label,zebra,NA,1,1836
s26_jv_fs4,1,118,incongruent,absent,label,kangaroo,NA,1,1263
s26_jv_fs4,1,119,congruent,present,label,zebra,zebra,0,1873
s26_jv_fs4,1,120,noise,absent,notCued,noise,NA,1,1580
s26_jv_fs4,1,121,incongruent,absent,label,kangaroo,NA,1,1592
s26_jv_fs4,1,122,noise,present,notCued,noise,zebra,0,2217
s26_jv_fs4,1,123,congruent,present,label,swan,swan,1,1160
s26_jv_fs4,1,124,congruent,present,label,zebra,zebra,1,1161
s26_jv_fs4,1,125,noise,absent,notCued,noise,NA,1,1946
s26_jv_fs4,1,126,incongruent,absent,label,zebra,NA,1,2173
s26_jv_fs4,1,127,noise,absent,notCued,noise,NA,1,2330
s26_jv_fs4,1,128,incongruent,absent,label,swan,NA,1,2020
s26_jv_fs4,1,129,incongruent,absent,label,pumpkin,NA,1,2139
s26_jv_fs4,1,130,noise,present,notCued,noise,rollingpin,1,1157
s26_jv_fs4,1,131,noise,absent,notCued,noise,NA,1,2792
s26_jv_fs4,1,132,incongruent,present,label,rollingpin,pumpkin,0,2028
s26_jv_fs4,1,133,noise,absent,notCued,noise,NA,1,2310
s26_jv_fs4,1,134,congruent,present,label,banana,banana,1,1369
s26_jv_fs4,1,135,noise,absent,notCued,noise,NA,1,1913
s26_jv_fs4,1,136,noise,absent,notCued,noise,NA,1,1831
s26_jv_fs4,1,137,congruent,present,label,kangaroo,kangaroo,1,1367
s26_jv_fs4,1,138,noise,present,notCued,noise,turtle,1,1160
s26_jv_fs4,1,139,congruent,present,label,pumpkin,pumpkin,1,1806
s26_jv_fs4,1,140,incongruent,absent,label,swan,NA,0,1582
s26_jv_fs4,1,141,noise,absent,notCued,noise,NA,0,1053
s26_jv_fs4,1,142,congruent,present,label,pumpkin,pumpkin,0,1902
s26_jv_fs4,1,143,incongruent,absent,label,turtle,NA,1,1513
s26_jv_fs4,1,144,incongruent,present,label,kangaroo,football,1,1262
s26_jv_fs4,1,145,incongruent,absent,label,banana,NA,0,948
s26_jv_fs4,1,146,noise,present,notCued,noise,kangaroo,0,1528
s26_jv_fs4,1,147,noise,present,notCued,noise,pumpkin,0,2190
s26_jv_fs4,1,148,congruent,present,label,pumpkin,pumpkin,0,2094
s26_jv_fs4,1,149,noise,present,notCued,noise,rollingpin,1,1053
s26_jv_fs4,1,150,noise,present,notCued,noise,banana,1,1161
s26_jv_fs4,1,151,noise,present,notCued,noise,football,0,2809
s26_jv_fs4,1,152,congruent,present,label,zebra,zebra,0,2218
s26_jv_fs4,1,153,incongruent,absent,label,rollingpin,NA,1,3016
s26_jv_fs4,1,154,incongruent,absent,label,football,NA,1,2246
s26_jv_fs4,1,155,congruent,present,label,swan,swan,1,1476
s26_jv_fs4,1,156,noise,present,notCued,noise,pumpkin,0,1887
s26_jv_fs4,1,157,congruent,present,label,football,football,1,1579
s26_jv_fs4,1,158,incongruent,absent,label,turtle,NA,1,1962
s26_jv_fs4,1,159,incongruent,absent,label,pumpkin,NA,1,1673
s26_jv_fs4,1,160,noise,present,notCued,noise,turtle,0,3561
s26_jv_fs4,2,1,incongruent,present,label,football,banana,0,1975
s26_jv_fs4,2,2,noise,present,notCued,noise,football,0,2760
s26_jv_fs4,2,3,congruent,present,label,rollingpin,rollingpin,1,948
s26_jv_fs4,2,4,incongruent,present,label,kangaroo,football,1,1579
s26_jv_fs4,2,5,congruent,present,label,swan,swan,0,1927
s26_jv_fs4,2,6,incongruent,absent,label,banana,NA,1,2248
s26_jv_fs4,2,7,incongruent,absent,label,zebra,NA,1,2209
s26_jv_fs4,2,8,congruent,present,label,pumpkin,pumpkin,0,2269
s26_jv_fs4,2,9,noise,absent,notCued,noise,NA,1,2089
s26_jv_fs4,2,10,incongruent,absent,label,swan,NA,1,2020
s26_jv_fs4,2,11,noise,present,notCued,noise,swan,0,2139
s26_jv_fs4,2,12,noise,present,notCued,noise,kangaroo,0,1581
s26_jv_fs4,2,13,noise,present,notCued,noise,swan,0,2179
s26_jv_fs4,2,14,noise,present,notCued,noise,pumpkin,0,3167
s26_jv_fs4,2,15,noise,present,notCued,noise,kangaroo,0,2393
s26_jv_fs4,2,16,incongruent,absent,label,swan,NA,1,2083
s26_jv_fs4,2,17,noise,absent,notCued,noise,NA,1,2347
s26_jv_fs4,2,18,noise,absent,notCued,noise,NA,1,2281
s26_jv_fs4,2,19,noise,present,notCued,noise,turtle,0,1989
s26_jv_fs4,2,20,incongruent,absent,label,turtle,NA,1,2214
s26_jv_fs4,2,21,noise,absent,notCued,noise,NA,1,2122
s26_jv_fs4,2,22,congruent,present,label,kangaroo,kangaroo,1,1054
s26_jv_fs4,2,23,congruent,present,label,rollingpin,rollingpin,0,2085
s26_jv_fs4,2,24,noise,absent,notCued,noise,NA,0,1053
s26_jv_fs4,2,25,incongruent,present,label,rollingpin,pumpkin,0,1868
s26_jv_fs4,2,26,noise,absent,notCued,noise,NA,1,2585
s26_jv_fs4,2,27,incongruent,present,label,kangaroo,rollingpin,0,2279
s26_jv_fs4,2,28,congruent,present,label,pumpkin,pumpkin,0,2653
s26_jv_fs4,2,29,congruent,present,label,swan,swan,0,1716
s26_jv_fs4,2,30,noise,present,notCued,noise,swan,0,1544
s26_jv_fs4,2,31,noise,absent,notCued,noise,NA,1,1994
s26_jv_fs4,2,32,incongruent,absent,label,banana,NA,1,1721
s26_jv_fs4,2,33,noise,present,notCued,noise,rollingpin,1,1543
s26_jv_fs4,2,34,noise,present,notCued,noise,turtle,0,1687
s26_jv_fs4,2,35,incongruent,absent,label,football,NA,0,1158
s26_jv_fs4,2,36,incongruent,absent,label,zebra,NA,1,1159
s26_jv_fs4,2,37,congruent,present,label,zebra,zebra,0,1965
s26_jv_fs4,2,38,noise,absent,notCued,noise,NA,0,1054
s26_jv_fs4,2,39,incongruent,absent,label,pumpkin,NA,1,2568
s26_jv_fs4,2,40,incongruent,absent,label,banana,NA,1,1900
s26_jv_fs4,2,41,congruent,present,label,banana,banana,1,1578
s26_jv_fs4,2,42,noise,present,notCued,noise,rollingpin,0,2105
s26_jv_fs4,2,43,incongruent,absent,label,banana,NA,0,1368
s26_jv_fs4,2,44,noise,present,notCued,noise,turtle,0,2214
s26_jv_fs4,2,45,incongruent,absent,label,football,NA,1,2294
s26_jv_fs4,2,46,congruent,present,label,rollingpin,rollingpin,1,1052
s26_jv_fs4,2,47,noise,absent,notCued,noise,NA,1,2312
s26_jv_fs4,2,48,incongruent,present,label,football,swan,1,1369
s26_jv_fs4,2,49,incongruent,absent,label,swan,NA,1,2004
s26_jv_fs4,2,50,congruent,present,label,banana,banana,0,2124
s26_jv_fs4,2,51,congruent,present,label,turtle,turtle,0,1974
s26_jv_fs4,2,52,noise,present,notCued,noise,football,1,1052
s26_jv_fs4,2,53,noise,present,notCued,noise,banana,0,3945
s26_jv_fs4,2,54,noise,present,notCued,noise,football,1,1158
s26_jv_fs4,2,55,incongruent,absent,label,zebra,NA,0,1054
s26_jv_fs4,2,56,noise,absent,notCued,noise,NA,1,1927
s26_jv_fs4,2,57,noise,present,notCued,noise,banana,1,1054
s26_jv_fs4,2,58,congruent,present,label,banana,banana,1,1265
s26_jv_fs4,2,59,incongruent,absent,label,turtle,NA,1,2232
s26_jv_fs4,2,60,congruent,present,label,banana,banana,1,1052
s26_jv_fs4,2,61,incongruent,absent,label,turtle,NA,1,1973
s26_jv_fs4,2,62,noise,present,notCued,noise,rollingpin,1,949
s26_jv_fs4,2,63,noise,present,notCued,noise,swan,1,2088
s26_jv_fs4,2,64,congruent,present,label,turtle,turtle,1,1475
s26_jv_fs4,2,65,noise,absent,notCued,noise,NA,1,2344
s26_jv_fs4,2,66,incongruent,absent,label,pumpkin,NA,1,1577
s26_jv_fs4,2,67,congruent,present,label,swan,swan,1,739
s26_jv_fs4,2,68,noise,absent,notCued,noise,NA,1,2215
s26_jv_fs4,2,69,noise,absent,notCued,noise,NA,1,1959
s26_jv_fs4,2,70,congruent,present,label,kangaroo,kangaroo,0,2004
s26_jv_fs4,2,71,congruent,present,label,football,football,0,2231
s26_jv_fs4,2,72,noise,present,notCued,noise,banana,1,2041
s26_jv_fs4,2,73,noise,present,notCued,noise,football,0,3033
s26_jv_fs4,2,74,noise,absent,notCued,noise,NA,1,2233
s26_jv_fs4,2,75,congruent,present,label,pumpkin,pumpkin,0,2462
s26_jv_fs4,2,76,noise,absent,notCued,noise,NA,1,1850
s26_jv_fs4,2,77,incongruent,absent,label,rollingpin,NA,1,1974
s26_jv_fs4,2,78,noise,absent,notCued,noise,NA,1,2027
s26_jv_fs4,2,79,incongruent,absent,label,kangaroo,NA,1,1368
s26_jv_fs4,2,80,congruent,present,label,kangaroo,kangaroo,0,1580
s26_jv_fs4,2,81,incongruent,absent,label,banana,NA,1,1549
s26_jv_fs4,2,82,congruent,present,label,swan,swan,1,1052
s26_jv_fs4,2,83,incongruent,absent,label,rollingpin,NA,0,844
s26_jv_fs4,2,84,noise,absent,notCued,noise,NA,1,2103
s26_jv_fs4,2,85,noise,absent,notCued,noise,NA,1,2703
s26_jv_fs4,2,86,congruent,present,label,zebra,zebra,1,1475
s26_jv_fs4,2,87,noise,present,notCued,noise,pumpkin,0,3150
s26_jv_fs4,2,88,congruent,present,label,turtle,turtle,1,2071
s26_jv_fs4,2,89,incongruent,absent,label,zebra,NA,0,1052
s26_jv_fs4,2,90,congruent,present,label,rollingpin,rollingpin,1,1054
s26_jv_fs4,2,91,congruent,present,label,pumpkin,pumpkin,1,1284
s26_jv_fs4,2,92,noise,absent,notCued,noise,NA,0,1159
s26_jv_fs4,2,93,congruent,present,label,zebra,zebra,1,843
s26_jv_fs4,2,94,noise,absent,notCued,noise,NA,1,2024
s26_jv_fs4,2,95,noise,absent,notCued,noise,NA,1,2010
s26_jv_fs4,2,96,incongruent,absent,label,swan,NA,1,2150
s26_jv_fs4,2,97,incongruent,absent,label,banana,NA,1,2251
s26_jv_fs4,2,98,noise,present,notCued,noise,pumpkin,0,2159
s26_jv_fs4,2,99,noise,present,notCued,noise,swan,0,1929
s26_jv_fs4,2,100,incongruent,absent,label,pumpkin,NA,1,2071
s26_jv_fs4,2,101,noise,present,notCued,noise,zebra,0,2410
s26_jv_fs4,2,102,noise,present,notCued,noise,football,1,1054
s26_jv_fs4,2,103,noise,present,notCued,noise,kangaroo,1,949
s26_jv_fs4,2,104,incongruent,absent,label,rollingpin,NA,0,947
s26_jv_fs4,2,105,noise,absent,notCued,noise,NA,1,2136
s26_jv_fs4,2,106,incongruent,absent,label,football,NA,1,2391
s26_jv_fs4,2,107,noise,absent,notCued,noise,NA,1,2054
s26_jv_fs4,2,108,noise,absent,notCued,noise,NA,1,2007
s26_jv_fs4,2,109,noise,absent,notCued,noise,NA,1,1928
s26_jv_fs4,2,110,noise,absent,notCued,noise,NA,1,2039
s26_jv_fs4,2,111,incongruent,absent,label,kangaroo,NA,1,1973
s26_jv_fs4,2,112,noise,present,notCued,noise,zebra,1,953
s26_jv_fs4,2,113,incongruent,present,label,football,turtle,1,1831
s26_jv_fs4,2,114,noise,absent,notCued,noise,NA,0,1371
s26_jv_fs4,2,115,incongruent,present,label,football,zebra,1,1158
s26_jv_fs4,2,116,incongruent,absent,label,turtle,NA,1,1945
s26_jv_fs4,2,117,congruent,present,label,football,football,1,1590
s26_jv_fs4,2,118,noise,present,notCued,noise,pumpkin,0,2287
s26_jv_fs4,2,119,congruent,present,label,kangaroo,kangaroo,0,1986
s26_jv_fs4,2,120,noise,absent,notCued,noise,NA,0,948
s26_jv_fs4,2,121,incongruent,absent,label,football,NA,1,2202
s26_jv_fs4,2,122,noise,absent,notCued,noise,NA,1,2025
s26_jv_fs4,2,123,noise,absent,notCued,noise,NA,1,1898
s26_jv_fs4,2,124,incongruent,absent,label,zebra,NA,1,3772
s26_jv_fs4,2,125,noise,absent,notCued,noise,NA,1,2698
s26_jv_fs4,2,126,noise,present,notCued,noise,banana,0,1895
s26_jv_fs4,2,127,noise,present,notCued,noise,kangaroo,0,2139
s26_jv_fs4,2,128,congruent,present,label,football,football,0,2073
s26_jv_fs4,2,129,incongruent,present,label,zebra,kangaroo,0,2269
s26_jv_fs4,2,130,noise,present,notCued,noise,turtle,1,1546
s26_jv_fs4,2,131,noise,absent,notCued,noise,NA,1,1896
s26_jv_fs4,2,132,noise,present,notCued,noise,zebra,0,1898
s26_jv_fs4,2,133,noise,absent,notCued,noise,NA,1,1882
s26_jv_fs4,2,134,noise,absent,notCued,noise,NA,1,1977
s26_jv_fs4,2,135,noise,present,notCued,noise,pumpkin,0,1870
s26_jv_fs4,2,136,noise,absent,notCued,noise,NA,1,1880
s26_jv_fs4,2,137,noise,absent,notCued,noise,NA,1,2044
s26_jv_fs4,2,138,incongruent,absent,label,kangaroo,NA,1,1909
s26_jv_fs4,2,139,noise,present,notCued,noise,zebra,1,1054
s26_jv_fs4,2,140,incongruent,absent,label,banana,NA,1,2363
s26_jv_fs4,2,141,incongruent,absent,label,swan,NA,1,1988
s26_jv_fs4,2,142,congruent,present,label,zebra,zebra,1,1053
s26_jv_fs4,2,143,noise,present,notCued,noise,zebra,1,842
s26_jv_fs4,2,144,noise,absent,notCued,noise,NA,0,1369
s26_jv_fs4,2,145,incongruent,absent,label,rollingpin,NA,1,1574
s26_jv_fs4,2,146,incongruent,absent,label,kangaroo,NA,1,1716
s26_jv_fs4,2,147,noise,absent,notCued,noise,NA,1,2280
s26_jv_fs4,2,148,noise,absent,notCued,noise,NA,0,1579
s26_jv_fs4,2,149,incongruent,absent,label,kangaroo,NA,1,1368
s26_jv_fs4,2,150,incongruent,absent,label,football,NA,1,1749
s26_jv_fs4,2,151,noise,present,notCued,noise,banana,1,1476
s26_jv_fs4,2,152,noise,present,notCued,noise,kangaroo,1,1054
s26_jv_fs4,2,153,incongruent,absent,label,zebra,NA,0,1369
s26_jv_fs4,2,154,congruent,present,label,football,football,0,1159
s26_jv_fs4,2,155,noise,absent,notCued,noise,NA,0,1264
s26_jv_fs4,2,156,noise,present,notCued,noise,rollingpin,1,1266
s26_jv_fs4,2,157,incongruent,absent,label,pumpkin,NA,1,1944
s26_jv_fs4,2,158,congruent,present,label,turtle,turtle,0,2119
s26_jv_fs4,2,159,noise,present,notCued,noise,rollingpin,1,843
s26_jv_fs4,2,160,noise,present,notCued,noise,turtle,0,2231
s28_rrs_fs4-2,1,1,noise,absent,notCued,noise,NA,1,2442
s28_rrs_fs4-2,1,2,noise,present,notCued,noise,pumpkin,0,2447
s28_rrs_fs4-2,1,3,congruent,present,label,zebra,zebra,0,2556
s28_rrs_fs4-2,1,4,noise,absent,notCued,noise,NA,1,2295
s28_rrs_fs4-2,1,5,congruent,present,label,pumpkin,pumpkin,0,2478
s28_rrs_fs4-2,1,6,noise,absent,notCued,noise,NA,1,2345
s28_rrs_fs4-2,1,7,noise,absent,notCued,noise,NA,1,2282
s28_rrs_fs4-2,1,8,noise,present,notCued,noise,banana,0,2250
s28_rrs_fs4-2,1,9,noise,present,notCued,noise,kangaroo,0,2263
s28_rrs_fs4-2,1,10,noise,present,notCued,noise,football,0,2153
s28_rrs_fs4-2,1,11,congruent,present,label,football,football,0,2298
s28_rrs_fs4-2,1,12,congruent,present,label,banana,banana,1,2905
s28_rrs_fs4-2,1,13,incongruent,absent,label,zebra,NA,1,1881
s28_rrs_fs4-2,1,14,noise,present,notCued,noise,rollingpin,0,2265
s28_rrs_fs4-2,1,15,noise,present,notCued,noise,kangaroo,0,2117
s28_rrs_fs4-2,1,16,noise,absent,notCued,noise,NA,1,2248
s28_rrs_fs4-2,1,17,noise,absent,notCued,noise,NA,1,2010
s28_rrs_fs4-2,1,18,noise,present,notCued,noise,swan,0,2233
s28_rrs_fs4-2,1,19,noise,absent,notCued,noise,NA,1,2265
s28_rrs_fs4-2,1,20,noise,present,notCued,noise,football,0,2217
s28_rrs_fs4-2,1,21,noise,absent,notCued,noise,NA,1,2105
s28_rrs_fs4-2,1,22,incongruent,absent,label,turtle,NA,1,2199
s28_rrs_fs4-2,1,23,noise,absent,notCued,noise,NA,1,2218
s28_rrs_fs4-2,1,24,incongruent,present,label,zebra,rollingpin,0,2122
s28_rrs_fs4-2,1,25,congruent,present,label,zebra,zebra,0,2168
s28_rrs_fs4-2,1,26,congruent,present,label,swan,swan,0,2100
s28_rrs_fs4-2,1,27,noise,present,notCued,noise,swan,0,2026
s28_rrs_fs4-2,1,28,noise,present,notCued,noise,football,0,2107
s28_rrs_fs4-2,1,29,incongruent,present,label,zebra,turtle,0,2249
s28_rrs_fs4-2,1,30,congruent,present,label,football,football,0,2085
s28_rrs_fs4-2,1,31,noise,present,notCued,noise,banana,0,1896
s28_rrs_fs4-2,1,32,noise,present,notCued,noise,rollingpin,1,1897
s28_rrs_fs4-2,1,33,incongruent,absent,label,swan,NA,0,1889
s28_rrs_fs4-2,1,34,congruent,present,label,zebra,zebra,0,1915
s28_rrs_fs4-2,1,35,incongruent,absent,label,turtle,NA,1,3208
s28_rrs_fs4-2,1,36,noise,absent,notCued,noise,NA,1,3193
s28_rrs_fs4-2,1,37,congruent,present,label,zebra,zebra,0,1882
s28_rrs_fs4-2,1,38,incongruent,present,label,rollingpin,banana,0,1942
s28_rrs_fs4-2,1,39,incongruent,absent,label,zebra,NA,1,2314
s28_rrs_fs4-2,1,40,noise,absent,notCued,noise,NA,1,2026
s28_rrs_fs4-2,1,41,congruent,present,label,pumpkin,pumpkin,0,1965
s28_rrs_fs4-2,1,42,noise,present,notCued,noise,pumpkin,1,4288
s28_rrs_fs4-2,1,43,incongruent,absent,label,banana,NA,1,1961
s28_rrs_fs4-2,1,44,noise,present,notCued,noise,pumpkin,0,1983
s28_rrs_fs4-2,1,45,noise,absent,notCued,noise,NA,1,2440
s28_rrs_fs4-2,1,46,incongruent,absent,label,pumpkin,NA,1,2347
s28_rrs_fs4-2,1,47,congruent,present,label,swan,swan,0,2006
s28_rrs_fs4-2,1,48,incongruent,absent,label,pumpkin,NA,1,1926
s28_rrs_fs4-2,1,49,noise,present,notCued,noise,swan,0,2137
s28_rrs_fs4-2,1,50,noise,absent,notCued,noise,NA,1,2091
s28_rrs_fs4-2,1,51,congruent,present,label,rollingpin,rollingpin,0,2087
s28_rrs_fs4-2,1,52,incongruent,absent,label,turtle,NA,1,2169
s28_rrs_fs4-2,1,53,incongruent,present,label,kangaroo,football,0,1921
s28_rrs_fs4-2,1,54,noise,absent,notCued,noise,NA,1,2137
s28_rrs_fs4-2,1,55,noise,present,notCued,noise,swan,0,1963
s28_rrs_fs4-2,1,56,incongruent,absent,label,zebra,NA,1,1994
s28_rrs_fs4-2,1,57,incongruent,absent,label,turtle,NA,1,1848
s28_rrs_fs4-2,1,58,incongruent,absent,label,kangaroo,NA,1,2037
s28_rrs_fs4-2,1,59,noise,absent,notCued,noise,NA,1,2055
s28_rrs_fs4-2,1,60,incongruent,absent,label,kangaroo,NA,1,1831
s28_rrs_fs4-2,1,61,incongruent,absent,label,kangaroo,NA,1,1958
s28_rrs_fs4-2,1,62,congruent,present,label,kangaroo,kangaroo,0,2085
s28_rrs_fs4-2,1,63,noise,absent,notCued,noise,NA,1,2280
s28_rrs_fs4-2,1,64,congruent,present,label,kangaroo,kangaroo,0,2355
s28_rrs_fs4-2,1,65,noise,present,notCued,noise,turtle,0,1930
s28_rrs_fs4-2,1,66,noise,present,notCued,noise,turtle,0,2011
s28_rrs_fs4-2,1,67,noise,present,notCued,noise,banana,0,1961
s28_rrs_fs4-2,1,68,incongruent,absent,label,swan,NA,1,2132
s28_rrs_fs4-2,1,69,congruent,present,label,rollingpin,rollingpin,0,1894
s28_rrs_fs4-2,1,70,noise,absent,notCued,noise,NA,1,1961
s28_rrs_fs4-2,1,71,noise,present,notCued,noise,football,1,2185
s28_rrs_fs4-2,1,72,noise,absent,notCued,noise,NA,1,2103
s28_rrs_fs4-2,1,73,incongruent,absent,label,football,NA,1,2630
s28_rrs_fs4-2,1,74,noise,absent,notCued,noise,NA,1,2021
s28_rrs_fs4-2,1,75,noise,present,notCued,noise,rollingpin,0,2008
s28_rrs_fs4-2,1,76,incongruent,absent,label,banana,NA,1,1993
s28_rrs_fs4-2,1,77,incongruent,absent,label,swan,NA,1,2003
s28_rrs_fs4-2,1,78,noise,absent,notCued,noise,NA,1,1876
s28_rrs_fs4-2,1,79,congruent,present,label,rollingpin,rollingpin,0,1992
s28_rrs_fs4-2,1,80,incongruent,absent,label,rollingpin,NA,1,1926
s28_rrs_fs4-2,1,81,noise,absent,notCued,noise,NA,1,1909
s28_rrs_fs4-2,1,82,noise,present,notCued,noise,turtle,0,1930
s28_rrs_fs4-2,1,83,congruent,present,label,swan,swan,0,1892
s28_rrs_fs4-2,1,84,incongruent,absent,label,pumpkin,NA,1,1832
s28_rrs_fs4-2,1,85,incongruent,absent,label,kangaroo,NA,1,1827
s28_rrs_fs4-2,1,86,congruent,present,label,banana,banana,0,1834
s28_rrs_fs4-2,1,87,congruent,present,label,football,football,0,1912
s28_rrs_fs4-2,1,88,noise,present,notCued,noise,football,0,2168
s28_rrs_fs4-2,1,89,incongruent,absent,label,pumpkin,NA,1,1897
s28_rrs_fs4-2,1,90,noise,absent,notCued,noise,NA,1,1946
s28_rrs_fs4-2,1,91,noise,absent,notCued,noise,NA,1,1830
s28_rrs_fs4-2,1,92,noise,present,notCued,noise,zebra,0,1832
s28_rrs_fs4-2,1,93,noise,absent,notCued,noise,NA,1,1833
s28_rrs_fs4-2,1,94,congruent,present,label,turtle,turtle,0,1897
s28_rrs_fs4-2,1,95,noise,present,notCued,noise,kangaroo,0,1878
s28_rrs_fs4-2,1,96,noise,present,notCued,noise,pumpkin,0,1871
s28_rrs_fs4-2,1,97,noise,present,notCued,noise,banana,0,1862
s28_rrs_fs4-2,1,98,congruent,present,label,football,football,0,1989
s28_rrs_fs4-2,1,99,incongruent,absent,label,rollingpin,NA,1,2007
s28_rrs_fs4-2,1,100,noise,present,notCued,noise,banana,0,1958
s28_rrs_fs4-2,1,101,noise,present,notCued,noise,zebra,0,2232
s28_rrs_fs4-2,1,102,incongruent,absent,label,turtle,NA,0,3175
s28_rrs_fs4-2,1,103,incongruent,absent,label,zebra,NA,1,1996
s28_rrs_fs4-2,1,104,incongruent,absent,label,zebra,NA,1,2146
s28_rrs_fs4-2,1,105,noise,present,notCued,noise,rollingpin,0,2038
s28_rrs_fs4-2,1,106,incongruent,absent,label,rollingpin,NA,1,1893
s28_rrs_fs4-2,1,107,noise,absent,notCued,noise,NA,1,1962
s28_rrs_fs4-2,1,108,noise,absent,notCued,noise,NA,1,2058
s28_rrs_fs4-2,1,109,noise,present,notCued,noise,zebra,0,1977
s28_rrs_fs4-2,1,110,incongruent,absent,label,banana,NA,1,1944
s28_rrs_fs4-2,1,111,congruent,present,label,banana,banana,1,2507
s28_rrs_fs4-2,1,112,noise,absent,notCued,noise,NA,1,2409
s28_rrs_fs4-2,1,113,noise,present,notCued,noise,swan,0,1945
s28_rrs_fs4-2,1,114,incongruent,absent,label,pumpkin,NA,1,3227
s28_rrs_fs4-2,1,115,incongruent,absent,label,football,NA,1,2074
s28_rrs_fs4-2,1,116,congruent,present,label,rollingpin,rollingpin,0,1939
s28_rrs_fs4-2,1,117,noise,absent,notCued,noise,NA,1,1977
s28_rrs_fs4-2,1,118,noise,present,notCued,noise,turtle,0,1977
s28_rrs_fs4-2,1,119,incongruent,absent,label,football,NA,0,3352
s28_rrs_fs4-2,1,120,noise,absent,notCued,noise,NA,1,3911
s28_rrs_fs4-2,1,121,noise,absent,notCued,noise,NA,1,1895
s28_rrs_fs4-2,1,122,incongruent,absent,label,swan,NA,1,1861
s28_rrs_fs4-2,1,123,incongruent,present,label,banana,swan,0,1897
s28_rrs_fs4-2,1,124,incongruent,present,label,rollingpin,zebra,0,2165
s28_rrs_fs4-2,1,125,incongruent,absent,label,banana,NA,1,1880
s28_rrs_fs4-2,1,126,congruent,present,label,banana,banana,0,2009
s28_rrs_fs4-2,1,127,noise,present,notCued,noise,zebra,0,1896
s28_rrs_fs4-2,1,128,incongruent,absent,label,rollingpin,NA,1,1975
s28_rrs_fs4-2,1,129,congruent,present,label,turtle,turtle,0,1958
s28_rrs_fs4-2,1,130,congruent,present,label,kangaroo,kangaroo,0,1937
s28_rrs_fs4-2,1,131,incongruent,absent,label,rollingpin,NA,1,2022
s28_rrs_fs4-2,1,132,congruent,present,label,kangaroo,kangaroo,0,1923
s28_rrs_fs4-2,1,133,incongruent,absent,label,rollingpin,NA,1,1909
s28_rrs_fs4-2,1,134,noise,absent,notCued,noise,NA,0,3352
s28_rrs_fs4-2,1,135,noise,present,notCued,noise,pumpkin,0,2031
s28_rrs_fs4-2,1,136,noise,absent,notCued,noise,NA,1,1946
s28_rrs_fs4-2,1,137,noise,present,notCued,noise,kangaroo,0,1878
s28_rrs_fs4-2,1,138,noise,present,notCued,noise,rollingpin,0,1864
s28_rrs_fs4-2,1,139,noise,absent,notCued,noise,NA,1,1863
s28_rrs_fs4-2,1,140,noise,absent,notCued,noise,NA,1,1818
s28_rrs_fs4-2,1,141,noise,absent,notCued,noise,NA,1,1879
s28_rrs_fs4-2,1,142,noise,present,notCued,noise,kangaroo,0,1833
s28_rrs_fs4-2,1,143,incongruent,present,label,zebra,pumpkin,0,1905
s28_rrs_fs4-2,1,144,congruent,present,label,pumpkin,pumpkin,0,4078
s28_rrs_fs4-2,1,145,noise,absent,notCued,noise,NA,1,1994
s28_rrs_fs4-2,1,146,noise,absent,notCued,noise,NA,1,1849
s28_rrs_fs4-2,1,147,incongruent,present,label,pumpkin,kangaroo,1,2168
s28_rrs_fs4-2,1,148,incongruent,absent,label,football,NA,1,4295
s28_rrs_fs4-2,1,149,noise,present,notCued,noise,zebra,0,1993
s28_rrs_fs4-2,1,150,congruent,present,label,swan,swan,0,1874
s28_rrs_fs4-2,1,151,noise,absent,notCued,noise,NA,1,1945
s28_rrs_fs4-2,1,152,incongruent,absent,label,zebra,NA,1,1884
s28_rrs_fs4-2,1,153,congruent,present,label,pumpkin,pumpkin,1,2190
s28_rrs_fs4-2,1,154,incongruent,absent,label,kangaroo,NA,1,1924
s28_rrs_fs4-2,1,155,congruent,present,label,turtle,turtle,0,2838
s28_rrs_fs4-2,1,156,congruent,present,label,turtle,turtle,1,2136
s28_rrs_fs4-2,1,157,incongruent,absent,label,rollingpin,NA,1,2229
s28_rrs_fs4-2,1,158,noise,present,notCued,noise,turtle,0,1945
s28_rrs_fs4-2,1,159,noise,absent,notCued,noise,NA,1,2008
s28_rrs_fs4-2,1,160,noise,absent,notCued,noise,NA,1,1849
s28_rrs_fs4-2,2,1,noise,present,notCued,noise,rollingpin,0,1896
s28_rrs_fs4-2,2,2,noise,present,notCued,noise,zebra,0,1851
s28_rrs_fs4-2,2,3,incongruent,present,label,zebra,turtle,0,2507
s28_rrs_fs4-2,2,4,noise,absent,notCued,noise,NA,1,1927
s28_rrs_fs4-2,2,5,noise,absent,notCued,noise,NA,1,1833
s28_rrs_fs4-2,2,6,noise,absent,notCued,noise,NA,1,1913
s28_rrs_fs4-2,2,7,noise,present,notCued,noise,turtle,0,1578
s28_rrs_fs4-2,2,8,noise,present,notCued,noise,zebra,0,2007
s28_rrs_fs4-2,2,9,noise,absent,notCued,noise,NA,1,1865
s28_rrs_fs4-2,2,10,congruent,present,label,banana,banana,1,3879
s28_rrs_fs4-2,2,11,incongruent,present,label,rollingpin,zebra,0,1846
s28_rrs_fs4-2,2,12,noise,absent,notCued,noise,NA,1,1832
s28_rrs_fs4-2,2,13,noise,present,notCued,noise,kangaroo,0,1861
s28_rrs_fs4-2,2,14,noise,present,notCued,noise,kangaroo,0,1863
s28_rrs_fs4-2,2,15,noise,absent,notCued,noise,NA,1,1848
s28_rrs_fs4-2,2,16,noise,absent,notCued,noise,NA,1,1818
s28_rrs_fs4-2,2,17,noise,present,notCued,noise,football,1,3096
s28_rrs_fs4-2,2,18,incongruent,absent,label,kangaroo,NA,1,1877
s28_rrs_fs4-2,2,19,congruent,present,label,football,football,1,1943
s28_rrs_fs4-2,2,20,noise,present,notCued,noise,pumpkin,1,3263
s28_rrs_fs4-2,2,21,noise,absent,notCued,noise,NA,1,1977
s28_rrs_fs4-2,2,22,noise,present,notCued,noise,banana,0,1928
s28_rrs_fs4-2,2,23,noise,present,notCued,noise,turtle,0,1931
s28_rrs_fs4-2,2,24,noise,absent,notCued,noise,NA,1,1979
s28_rrs_fs4-2,2,25,incongruent,present,label,banana,swan,0,1912
s28_rrs_fs4-2,2,26,incongruent,absent,label,turtle,NA,1,1880
s28_rrs_fs4-2,2,27,incongruent,present,label,zebra,pumpkin,0,1810
s28_rrs_fs4-2,2,28,noise,absent,notCued,noise,NA,1,1847
s28_rrs_fs4-2,2,29,noise,present,notCued,noise,rollingpin,0,1894
s28_rrs_fs4-2,2,30,congruent,present,label,rollingpin,rollingpin,0,1971
s28_rrs_fs4-2,2,31,congruent,present,label,pumpkin,pumpkin,0,1950
s28_rrs_fs4-2,2,32,noise,present,notCued,noise,football,0,1913
s28_rrs_fs4-2,2,33,noise,present,notCued,noise,swan,0,1847
s28_rrs_fs4-2,2,34,noise,absent,notCued,noise,NA,1,1943
s28_rrs_fs4-2,2,35,incongruent,absent,label,zebra,NA,1,1866
s28_rrs_fs4-2,2,36,incongruent,absent,label,football,NA,1,1978
s28_rrs_fs4-2,2,37,incongruent,absent,label,football,NA,1,1814
s28_rrs_fs4-2,2,38,incongruent,absent,label,turtle,NA,1,1815
s28_rrs_fs4-2,2,39,noise,present,notCued,noise,swan,0,1866
s28_rrs_fs4-2,2,40,incongruent,absent,label,swan,NA,1,1877
s28_rrs_fs4-2,2,41,incongruent,absent,label,kangaroo,NA,1,1845
s28_rrs_fs4-2,2,42,incongruent,absent,label,rollingpin,NA,1,2405
s28_rrs_fs4-2,2,43,noise,absent,notCued,noise,NA,1,1849
s28_rrs_fs4-2,2,44,incongruent,absent,label,rollingpin,NA,1,1877
s28_rrs_fs4-2,2,45,noise,absent,notCued,noise,NA,1,2025
s28_rrs_fs4-2,2,46,incongruent,absent,label,banana,NA,1,2203
s28_rrs_fs4-2,2,47,noise,absent,notCued,noise,NA,1,1929
s28_rrs_fs4-2,2,48,congruent,present,label,rollingpin,rollingpin,0,1925
s28_rrs_fs4-2,2,49,incongruent,absent,label,rollingpin,NA,1,1864
s28_rrs_fs4-2,2,50,noise,absent,notCued,noise,NA,1,1881
s28_rrs_fs4-2,2,51,incongruent,absent,label,kangaroo,NA,1,1845
s28_rrs_fs4-2,2,52,noise,absent,notCued,noise,NA,1,1930
s28_rrs_fs4-2,2,53,noise,present,notCued,noise,turtle,0,1768
s28_rrs_fs4-2,2,54,noise,present,notCued,noise,football,0,1929
s28_rrs_fs4-2,2,55,congruent,present,label,banana,banana,0,1909
s28_rrs_fs4-2,2,56,noise,present,notCued,noise,banana,0,1975
s28_rrs_fs4-2,2,57,incongruent,absent,label,zebra,NA,1,1868
s28_rrs_fs4-2,2,58,incongruent,absent,label,zebra,NA,1,1851
s28_rrs_fs4-2,2,59,incongruent,absent,label,rollingpin,NA,1,1813
s28_rrs_fs4-2,2,60,noise,absent,notCued,noise,NA,1,1866
s28_rrs_fs4-2,2,61,congruent,present,label,pumpkin,pumpkin,1,2414
s28_rrs_fs4-2,2,62,congruent,present,label,rollingpin,rollingpin,0,1830
s28_rrs_fs4-2,2,63,incongruent,absent,label,football,NA,1,2360
s28_rrs_fs4-2,2,64,noise,present,notCued,noise,turtle,0,1834
s28_rrs_fs4-2,2,65,congruent,present,label,football,football,1,1961
s28_rrs_fs4-2,2,66,noise,absent,notCued,noise,NA,0,3082
s28_rrs_fs4-2,2,67,noise,absent,notCued,noise,NA,1,2504
s28_rrs_fs4-2,2,68,incongruent,absent,label,turtle,NA,1,1848
s28_rrs_fs4-2,2,69,congruent,present,label,turtle,turtle,1,1929
s28_rrs_fs4-2,2,70,congruent,present,label,kangaroo,kangaroo,0,1859
s28_rrs_fs4-2,2,71,noise,absent,notCued,noise,NA,1,1929
s28_rrs_fs4-2,2,72,congruent,present,label,zebra,zebra,0,2970
s28_rrs_fs4-2,2,73,incongruent,present,label,rollingpin,banana,0,1847
s28_rrs_fs4-2,2,74,noise,absent,notCued,noise,NA,1,1818
s28_rrs_fs4-2,2,75,congruent,present,label,rollingpin,rollingpin,0,1831
s28_rrs_fs4-2,2,76,incongruent,present,label,pumpkin,kangaroo,0,2116
s28_rrs_fs4-2,2,77,noise,present,notCued,noise,pumpkin,0,2159
s28_rrs_fs4-2,2,78,congruent,present,label,football,football,1,1578
s28_rrs_fs4-2,2,79,incongruent,absent,label,rollingpin,NA,1,2262
s28_rrs_fs4-2,2,80,congruent,present,label,pumpkin,pumpkin,1,1391
s28_rrs_fs4-2,2,81,noise,absent,notCued,noise,NA,1,2216
s28_rrs_fs4-2,2,82,congruent,present,label,banana,banana,1,2935
s28_rrs_fs4-2,2,83,noise,absent,notCued,noise,NA,1,1959
s28_rrs_fs4-2,2,84,incongruent,absent,label,pumpkin,NA,0,3366
s28_rrs_fs4-2,2,85,congruent,present,label,zebra,zebra,1,4249
s28_rrs_fs4-2,2,86,noise,absent,notCued,noise,NA,1,1833
s28_rrs_fs4-2,2,87,noise,absent,notCued,noise,NA,1,1053
s28_rrs_fs4-2,2,88,noise,absent,notCued,noise,NA,1,1814
s28_rrs_fs4-2,2,89,noise,present,notCued,noise,banana,0,1912
s28_rrs_fs4-2,2,90,congruent,present,label,zebra,zebra,0,1914
s28_rrs_fs4-2,2,91,incongruent,present,label,kangaroo,football,1,1987
s28_rrs_fs4-2,2,92,noise,present,notCued,noise,football,0,2106
s28_rrs_fs4-2,2,93,noise,present,notCued,noise,swan,0,1883
s28_rrs_fs4-2,2,94,incongruent,absent,label,rollingpin,NA,1,1847
s28_rrs_fs4-2,2,95,noise,present,notCued,noise,swan,0,2042
s28_rrs_fs4-2,2,96,noise,present,notCued,noise,kangaroo,0,2404
s28_rrs_fs4-2,2,97,noise,absent,notCued,noise,NA,1,1850
s28_rrs_fs4-2,2,98,noise,present,notCued,noise,zebra,0,1848
s28_rrs_fs4-2,2,99,incongruent,absent,label,turtle,NA,1,1862
s28_rrs_fs4-2,2,100,congruent,present,label,kangaroo,kangaroo,0,1904
s28_rrs_fs4-2,2,101,noise,absent,notCued,noise,NA,1,2074
s28_rrs_fs4-2,2,102,noise,absent,notCued,noise,NA,1,1835
s28_rrs_fs4-2,2,103,congruent,present,label,zebra,zebra,0,1786
s28_rrs_fs4-2,2,104,noise,absent,notCued,noise,NA,1,1914
s28_rrs_fs4-2,2,105,incongruent,absent,label,kangaroo,NA,1,1846
s28_rrs_fs4-2,2,106,noise,present,notCued,noise,banana,0,2038
s28_rrs_fs4-2,2,107,noise,absent,notCued,noise,NA,1,1802
s28_rrs_fs4-2,2,108,incongruent,absent,label,pumpkin,NA,1,1848
s28_rrs_fs4-2,2,109,noise,present,notCued,noise,pumpkin,1,2335
s28_rrs_fs4-2,2,110,noise,absent,notCued,noise,NA,1,2454
s28_rrs_fs4-2,2,111,congruent,present,label,turtle,turtle,0,2201
s28_rrs_fs4-2,2,112,noise,absent,notCued,noise,NA,1,1863
s28_rrs_fs4-2,2,113,incongruent,absent,label,football,NA,0,2646
s28_rrs_fs4-2,2,114,congruent,present,label,swan,swan,0,2180
s28_rrs_fs4-2,2,115,incongruent,absent,label,pumpkin,NA,1,1816
s28_rrs_fs4-2,2,116,noise,present,notCued,noise,rollingpin,0,1862
s28_rrs_fs4-2,2,117,incongruent,absent,label,zebra,NA,1,1835
s28_rrs_fs4-2,2,118,noise,absent,notCued,noise,NA,1,1833
s28_rrs_fs4-2,2,119,noise,absent,notCued,noise,NA,1,1832
s28_rrs_fs4-2,2,120,noise,present,notCued,noise,zebra,0,2011
s28_rrs_fs4-2,2,121,congruent,present,label,swan,swan,0,1860
s28_rrs_fs4-2,2,122,incongruent,absent,label,swan,NA,1,1894
s28_rrs_fs4-2,2,123,incongruent,absent,label,rollingpin,NA,1,1879
s28_rrs_fs4-2,2,124,noise,present,notCued,noise,kangaroo,0,1735
s28_rrs_fs4-2,2,125,congruent,present,label,swan,swan,0,2019
s28_rrs_fs4-2,2,126,noise,present,notCued,noise,pumpkin,1,1983
s28_rrs_fs4-2,2,127,incongruent,absent,label,banana,NA,1,2152
s28_rrs_fs4-2,2,128,noise,present,notCued,noise,swan,1,3371
s28_rrs_fs4-2,2,129,congruent,present,label,football,football,1,2551
s28_rrs_fs4-2,2,130,congruent,present,label,pumpkin,pumpkin,1,1790
s28_rrs_fs4-2,2,131,noise,present,notCued,noise,banana,0,1914
s28_rrs_fs4-2,2,132,noise,present,notCued,noise,pumpkin,1,1855
s28_rrs_fs4-2,2,133,incongruent,absent,label,kangaroo,NA,1,1860
s28_rrs_fs4-2,2,134,noise,absent,notCued,noise,NA,1,2218
s28_rrs_fs4-2,2,135,noise,absent,notCued,noise,NA,1,1849
s28_rrs_fs4-2,2,136,noise,present,notCued,noise,kangaroo,1,1894
s28_rrs_fs4-2,2,137,congruent,present,label,banana,banana,0,1882
s28_rrs_fs4-2,2,138,incongruent,absent,label,swan,NA,1,1859
s28_rrs_fs4-2,2,139,incongruent,absent,label,banana,NA,1,1867
s28_rrs_fs4-2,2,140,noise,present,notCued,noise,rollingpin,1,1881
s28_rrs_fs4-2,2,141,incongruent,absent,label,pumpkin,NA,1,1893
s28_rrs_fs4-2,2,142,congruent,present,label,kangaroo,kangaroo,1,1474
s28_rrs_fs4-2,2,143,noise,absent,notCued,noise,NA,1,1832
s28_rrs_fs4-2,2,144,noise,present,notCued,noise,turtle,1,2360
s28_rrs_fs4-2,2,145,incongruent,absent,label,swan,NA,1,1843
s28_rrs_fs4-2,2,146,noise,absent,notCued,noise,NA,1,1976
s28_rrs_fs4-2,2,147,incongruent,absent,label,zebra,NA,1,1880
s28_rrs_fs4-2,2,148,congruent,present,label,turtle,turtle,1,2212
s28_rrs_fs4-2,2,149,noise,absent,notCued,noise,NA,1,1831
s28_rrs_fs4-2,2,150,congruent,present,label,swan,swan,1,2706
s28_rrs_fs4-2,2,151,incongruent,absent,label,zebra,NA,1,1368
s28_rrs_fs4-2,2,152,incongruent,absent,label,banana,NA,1,1866
s28_rrs_fs4-2,2,153,incongruent,present,label,zebra,rollingpin,1,2457
s28_rrs_fs4-2,2,154,incongruent,absent,label,pumpkin,NA,1,1539
s28_rrs_fs4-2,2,155,noise,present,notCued,noise,rollingpin,1,1959
s28_rrs_fs4-2,2,156,congruent,present,label,kangaroo,kangaroo,1,1936
s28_rrs_fs4-2,2,157,incongruent,absent,label,turtle,NA,1,1848
s28_rrs_fs4-2,2,158,noise,present,notCued,noise,zebra,1,2296
s28_rrs_fs4-2,2,159,noise,present,notCued,noise,football,1,2136
s28_rrs_fs4-2,2,160,congruent,present,label,turtle,turtle,1,2023
s29_zg_fs4,1,1,noise,present,notCued,noise,swan,1,2543
s29_zg_fs4,1,2,congruent,present,label,swan,swan,1,3113
s29_zg_fs4,1,3,noise,present,notCued,noise,turtle,1,2832
s29_zg_fs4,1,4,noise,present,notCued,noise,football,1,2403
s29_zg_fs4,1,5,noise,present,notCued,noise,banana,1,2309
s29_zg_fs4,1,6,noise,absent,notCued,noise,NA,1,2466
s29_zg_fs4,1,7,noise,absent,notCued,noise,NA,1,2537
s29_zg_fs4,1,8,noise,present,notCued,noise,swan,1,2740
s29_zg_fs4,1,9,incongruent,absent,label,turtle,NA,1,2175
s29_zg_fs4,1,10,noise,present,notCued,noise,football,1,2115
s29_zg_fs4,1,11,incongruent,absent,label,banana,NA,1,3749
s29_zg_fs4,1,12,incongruent,absent,label,zebra,NA,0,2120
s29_zg_fs4,1,13,noise,present,notCued,noise,banana,1,2289
s29_zg_fs4,1,14,noise,present,notCued,noise,pumpkin,1,2255
s29_zg_fs4,1,15,noise,absent,notCued,noise,NA,0,2259
s29_zg_fs4,1,16,incongruent,absent,label,kangaroo,NA,1,3630
s29_zg_fs4,1,17,congruent,present,label,zebra,zebra,1,2163
s29_zg_fs4,1,18,noise,absent,notCued,noise,NA,0,4225
s29_zg_fs4,1,19,noise,present,notCued,noise,rollingpin,1,2243
s29_zg_fs4,1,20,noise,present,notCued,noise,turtle,0,2817
s29_zg_fs4,1,21,noise,absent,notCued,noise,NA,1,2387
s29_zg_fs4,1,22,noise,present,notCued,noise,pumpkin,1,2271
s29_zg_fs4,1,23,noise,absent,notCued,noise,NA,0,4129
s29_zg_fs4,1,24,noise,present,notCued,noise,football,1,3027
s29_zg_fs4,1,25,noise,present,notCued,noise,swan,1,5253
s29_zg_fs4,1,26,congruent,present,label,turtle,turtle,0,3215
s29_zg_fs4,1,27,incongruent,present,label,zebra,turtle,0,2197
s29_zg_fs4,1,28,incongruent,absent,label,pumpkin,NA,1,2032
s29_zg_fs4,1,29,noise,absent,notCued,noise,NA,1,2148
s29_zg_fs4,1,30,congruent,present,label,kangaroo,kangaroo,1,2176
s29_zg_fs4,1,31,congruent,present,label,banana,banana,1,2503
s29_zg_fs4,1,32,noise,present,notCued,noise,turtle,0,4150
s29_zg_fs4,1,33,incongruent,present,label,zebra,rollingpin,1,3012
s29_zg_fs4,1,34,congruent,present,label,pumpkin,pumpkin,1,2174
s29_zg_fs4,1,35,noise,absent,notCued,noise,NA,1,1896
s29_zg_fs4,1,36,congruent,present,label,turtle,turtle,1,2162
s29_zg_fs4,1,37,congruent,present,label,rollingpin,rollingpin,1,2115
s29_zg_fs4,1,38,incongruent,absent,label,banana,NA,1,1905
s29_zg_fs4,1,39,noise,present,notCued,noise,kangaroo,1,2339
s29_zg_fs4,1,40,congruent,present,label,rollingpin,rollingpin,1,2896
s29_zg_fs4,1,41,congruent,present,label,rollingpin,rollingpin,1,1874
s29_zg_fs4,1,42,incongruent,absent,label,turtle,NA,1,2114
s29_zg_fs4,1,43,incongruent,absent,label,turtle,NA,1,2931
s29_zg_fs4,1,44,noise,present,notCued,noise,pumpkin,1,2430
s29_zg_fs4,1,45,incongruent,present,label,banana,swan,1,3126
s29_zg_fs4,1,46,noise,present,notCued,noise,football,1,2597
s29_zg_fs4,1,47,noise,present,notCued,noise,turtle,1,2354
s29_zg_fs4,1,48,incongruent,absent,label,zebra,NA,1,1912
s29_zg_fs4,1,49,incongruent,absent,label,rollingpin,NA,1,2240
s29_zg_fs4,1,50,noise,present,notCued,noise,swan,1,2803
s29_zg_fs4,1,51,incongruent,absent,label,swan,NA,1,1968
s29_zg_fs4,1,52,incongruent,present,label,rollingpin,zebra,1,1956
s29_zg_fs4,1,53,incongruent,absent,label,rollingpin,NA,1,1935
s29_zg_fs4,1,54,incongruent,present,label,rollingpin,banana,1,2255
s29_zg_fs4,1,55,incongruent,absent,label,banana,NA,1,2642
s29_zg_fs4,1,56,noise,absent,notCued,noise,NA,1,2374
s29_zg_fs4,1,57,noise,absent,notCued,noise,NA,1,1955
s29_zg_fs4,1,58,incongruent,absent,label,kangaroo,NA,1,1905
s29_zg_fs4,1,59,congruent,present,label,swan,swan,1,1856
s29_zg_fs4,1,60,noise,absent,notCued,noise,NA,1,1904
s29_zg_fs4,1,61,noise,present,notCued,noise,swan,1,2116
s29_zg_fs4,1,62,incongruent,present,label,pumpkin,kangaroo,1,1966
s29_zg_fs4,1,63,noise,absent,notCued,noise,NA,1,1935
s29_zg_fs4,1,64,incongruent,absent,label,pumpkin,NA,1,1889
s29_zg_fs4,1,65,incongruent,present,label,zebra,pumpkin,1,2257
s29_zg_fs4,1,66,noise,absent,notCued,noise,NA,1,1893
s29_zg_fs4,1,67,noise,absent,notCued,noise,NA,1,1941
s29_zg_fs4,1,68,incongruent,absent,label,football,NA,1,1904
s29_zg_fs4,1,69,noise,absent,notCued,noise,NA,1,2148
s29_zg_fs4,1,70,congruent,present,label,football,football,1,1874
s29_zg_fs4,1,71,congruent,present,label,pumpkin,pumpkin,1,1950
s29_zg_fs4,1,72,incongruent,absent,label,swan,NA,1,2417
s29_zg_fs4,1,73,incongruent,absent,label,football,NA,1,3235
s29_zg_fs4,1,74,noise,absent,notCued,noise,NA,1,2738
s29_zg_fs4,1,75,incongruent,absent,label,zebra,NA,1,2056
s29_zg_fs4,1,76,noise,absent,notCued,noise,NA,1,2195
s29_zg_fs4,1,77,noise,absent,notCued,noise,NA,1,2178
s29_zg_fs4,1,78,incongruent,absent,label,zebra,NA,1,2131
s29_zg_fs4,1,79,noise,present,notCued,noise,rollingpin,1,1940
s29_zg_fs4,1,80,noise,absent,notCued,noise,NA,1,2437
s29_zg_fs4,1,81,congruent,present,label,pumpkin,pumpkin,1,2094
s29_zg_fs4,1,82,congruent,present,label,zebra,zebra,1,2501
s29_zg_fs4,1,83,incongruent,absent,label,pumpkin,NA,1,2724
s29_zg_fs4,1,84,noise,absent,notCued,noise,NA,1,2819
s29_zg_fs4,1,85,congruent,present,label,turtle,turtle,1,3154
s29_zg_fs4,1,86,noise,present,notCued,noise,kangaroo,1,2051
s29_zg_fs4,1,87,noise,present,notCued,noise,banana,1,2258
s29_zg_fs4,1,88,noise,present,notCued,noise,rollingpin,1,2835
s29_zg_fs4,1,89,noise,absent,notCued,noise,NA,1,2115
s29_zg_fs4,1,90,incongruent,absent,label,football,NA,1,2261
s29_zg_fs4,1,91,noise,present,notCued,noise,pumpkin,1,2431
s29_zg_fs4,1,92,noise,present,notCued,noise,rollingpin,1,3123
s29_zg_fs4,1,93,incongruent,absent,label,kangaroo,NA,1,2848
s29_zg_fs4,1,94,congruent,present,label,zebra,zebra,1,3189
s29_zg_fs4,1,95,noise,absent,notCued,noise,NA,1,1941
s29_zg_fs4,1,96,incongruent,absent,label,football,NA,1,2034
s29_zg_fs4,1,97,congruent,present,label,banana,banana,1,2229
s29_zg_fs4,1,98,incongruent,absent,label,pumpkin,NA,1,2482
s29_zg_fs4,1,99,congruent,present,label,football,football,1,2306
s29_zg_fs4,1,100,incongruent,absent,label,zebra,NA,1,1927
s29_zg_fs4,1,101,incongruent,absent,label,rollingpin,NA,1,3568
s29_zg_fs4,1,102,noise,absent,notCued,noise,NA,1,2803
s29_zg_fs4,1,103,incongruent,absent,label,rollingpin,NA,1,2014
s29_zg_fs4,1,104,congruent,present,label,pumpkin,pumpkin,1,1967
s29_zg_fs4,1,105,congruent,present,label,football,football,1,2243
s29_zg_fs4,1,106,congruent,present,label,turtle,turtle,1,2145
s29_zg_fs4,1,107,incongruent,absent,label,rollingpin,NA,1,2130
s29_zg_fs4,1,108,noise,absent,notCued,noise,NA,1,2859
s29_zg_fs4,1,109,noise,absent,notCued,noise,NA,1,2466
s29_zg_fs4,1,110,noise,present,notCued,noise,kangaroo,1,1839
s29_zg_fs4,1,111,noise,absent,notCued,noise,NA,1,2115
s29_zg_fs4,1,112,noise,absent,notCued,noise,NA,1,2550
s29_zg_fs4,1,113,incongruent,present,label,kangaroo,football,1,1839
s29_zg_fs4,1,114,incongruent,absent,label,turtle,NA,1,1890
s29_zg_fs4,1,115,noise,present,notCued,noise,zebra,1,2307
s29_zg_fs4,1,116,noise,absent,notCued,noise,NA,1,1846
s29_zg_fs4,1,117,congruent,present,label,zebra,zebra,1,2807
s29_zg_fs4,1,118,noise,absent,notCued,noise,NA,1,2614
s29_zg_fs4,1,119,noise,present,notCued,noise,kangaroo,1,3141
s29_zg_fs4,1,120,congruent,present,label,swan,swan,1,2400
s29_zg_fs4,1,121,congruent,present,label,kangaroo,kangaroo,1,2092
s29_zg_fs4,1,122,congruent,present,label,kangaroo,kangaroo,1,2178
s29_zg_fs4,1,123,noise,absent,notCued,noise,NA,1,1987
s29_zg_fs4,1,124,noise,absent,notCued,noise,NA,1,2207
s29_zg_fs4,1,125,congruent,present,label,rollingpin,rollingpin,1,1922
s29_zg_fs4,1,126,incongruent,absent,label,kangaroo,NA,1,2427
s29_zg_fs4,1,127,incongruent,absent,label,banana,NA,1,3698
s29_zg_fs4,1,128,noise,absent,notCued,noise,NA,1,2402
s29_zg_fs4,1,129,noise,present,notCued,noise,banana,1,2399
s29_zg_fs4,1,130,noise,absent,notCued,noise,NA,1,2709
s29_zg_fs4,1,131,congruent,present,label,football,football,1,2192
s29_zg_fs4,1,132,incongruent,absent,label,kangaroo,NA,1,2143
s29_zg_fs4,1,133,noise,present,notCued,noise,football,1,2004
s29_zg_fs4,1,134,incongruent,absent,label,swan,NA,1,2108
s29_zg_fs4,1,135,noise,absent,notCued,noise,NA,1,1161
s29_zg_fs4,1,136,congruent,present,label,kangaroo,kangaroo,1,952
s29_zg_fs4,1,137,noise,present,notCued,noise,zebra,1,953
s29_zg_fs4,1,138,noise,absent,notCued,noise,NA,1,1056
s29_zg_fs4,1,139,incongruent,absent,label,pumpkin,NA,1,1163
s29_zg_fs4,1,140,noise,present,notCued,noise,rollingpin,1,952
s29_zg_fs4,1,141,noise,absent,notCued,noise,NA,1,1373
s29_zg_fs4,1,142,noise,absent,notCued,noise,NA,1,1059
s29_zg_fs4,1,143,noise,present,notCued,noise,zebra,1,846
s29_zg_fs4,1,144,noise,absent,notCued,noise,NA,1,1058
s29_zg_fs4,1,145,incongruent,absent,label,zebra,NA,1,951
s29_zg_fs4,1,146,incongruent,absent,label,swan,NA,1,1057
s29_zg_fs4,1,147,noise,present,notCued,noise,zebra,1,951
s29_zg_fs4,1,148,incongruent,absent,label,rollingpin,NA,1,1374
s29_zg_fs4,1,149,incongruent,absent,label,rollingpin,NA,1,1480
s29_zg_fs4,1,150,incongruent,absent,label,turtle,NA,1,1268
s29_zg_fs4,1,151,noise,present,notCued,noise,zebra,1,951
s29_zg_fs4,1,152,noise,present,notCued,noise,banana,1,1585
s29_zg_fs4,1,153,congruent,present,label,banana,banana,1,1265
s29_zg_fs4,1,154,noise,absent,notCued,noise,NA,1,1939
s29_zg_fs4,1,155,congruent,present,label,banana,banana,1,740
s29_zg_fs4,1,156,noise,present,notCued,noise,kangaroo,1,1746
s29_zg_fs4,1,157,noise,present,notCued,noise,pumpkin,1,1567
s29_zg_fs4,1,158,congruent,present,label,swan,swan,1,847
s29_zg_fs4,1,159,noise,absent,notCued,noise,NA,1,1267
s29_zg_fs4,1,160,noise,present,notCued,noise,turtle,1,2124
s29_zg_fs4,2,1,incongruent,absent,label,pumpkin,NA,1,1479
s29_zg_fs4,2,2,incongruent,absent,label,rollingpin,NA,1,1370
s29_zg_fs4,2,3,incongruent,absent,label,turtle,NA,1,1269
s29_zg_fs4,2,4,congruent,present,label,swan,swan,1,741
s29_zg_fs4,2,5,noise,present,notCued,noise,kangaroo,1,1584
s29_zg_fs4,2,6,incongruent,absent,label,pumpkin,NA,1,1524
s29_zg_fs4,2,7,noise,present,notCued,noise,banana,1,950
s29_zg_fs4,2,8,noise,present,notCued,noise,pumpkin,1,1499
s29_zg_fs4,2,9,congruent,present,label,zebra,zebra,1,739
s29_zg_fs4,2,10,congruent,present,label,rollingpin,rollingpin,1,1056
s29_zg_fs4,2,11,congruent,present,label,banana,banana,1,1374
s29_zg_fs4,2,12,congruent,present,label,turtle,turtle,1,951
s29_zg_fs4,2,13,noise,present,notCued,noise,turtle,1,1376
s29_zg_fs4,2,14,noise,absent,notCued,noise,NA,1,1161
s29_zg_fs4,2,15,incongruent,absent,label,swan,NA,1,1057
s29_zg_fs4,2,16,incongruent,absent,label,zebra,NA,1,1163
s29_zg_fs4,2,17,congruent,present,label,football,football,1,949
s29_zg_fs4,2,18,incongruent,absent,label,rollingpin,NA,1,1057
s29_zg_fs4,2,19,noise,absent,notCued,noise,NA,1,1479
s29_zg_fs4,2,20,congruent,present,label,kangaroo,kangaroo,1,1268
s29_zg_fs4,2,21,incongruent,present,label,kangaroo,football,1,1162
s29_zg_fs4,2,22,noise,absent,notCued,noise,NA,1,1161
s29_zg_fs4,2,23,incongruent,absent,label,football,NA,1,1058
s29_zg_fs4,2,24,noise,absent,notCued,noise,NA,1,1162
s29_zg_fs4,2,25,incongruent,absent,label,zebra,NA,1,845
s29_zg_fs4,2,26,congruent,present,label,swan,swan,1,844
s29_zg_fs4,2,27,congruent,present,label,banana,banana,1,1165
s29_zg_fs4,2,28,noise,present,notCued,noise,zebra,1,845
s29_zg_fs4,2,29,incongruent,absent,label,kangaroo,NA,1,741
s29_zg_fs4,2,30,noise,absent,notCued,noise,NA,1,846
s29_zg_fs4,2,31,noise,absent,notCued,noise,NA,1,840
s29_zg_fs4,2,32,incongruent,absent,label,banana,NA,1,846
s29_zg_fs4,2,33,congruent,present,label,football,football,1,846
s29_zg_fs4,2,34,noise,present,notCued,noise,football,1,950
s29_zg_fs4,2,35,congruent,present,label,zebra,zebra,1,738
s29_zg_fs4,2,36,noise,present,notCued,noise,rollingpin,1,846
s29_zg_fs4,2,37,noise,absent,notCued,noise,NA,1,741
s29_zg_fs4,2,38,noise,present,notCued,noise,turtle,1,1524
s29_zg_fs4,2,39,noise,absent,notCued,noise,NA,1,848
s29_zg_fs4,2,40,noise,present,notCued,noise,swan,1,1056
s29_zg_fs4,2,41,congruent,present,label,swan,swan,1,1270
s29_zg_fs4,2,42,noise,present,notCued,noise,rollingpin,1,1163
s29_zg_fs4,2,43,noise,present,notCued,noise,turtle,1,1481
s29_zg_fs4,2,44,noise,present,notCued,noise,swan,1,845
s29_zg_fs4,2,45,noise,present,notCued,noise,zebra,1,843
s29_zg_fs4,2,46,incongruent,absent,label,swan,NA,1,1587
s29_zg_fs4,2,47,congruent,present,label,banana,banana,1,845
s29_zg_fs4,2,48,incongruent,absent,label,zebra,NA,1,1164
s29_zg_fs4,2,49,noise,present,notCued,noise,banana,1,952
s29_zg_fs4,2,50,incongruent,absent,label,banana,NA,1,1383
s29_zg_fs4,2,51,noise,absent,notCued,noise,NA,1,1271
s29_zg_fs4,2,52,congruent,present,label,turtle,turtle,1,1164
s29_zg_fs4,2,53,noise,present,notCued,noise,football,1,952
s29_zg_fs4,2,54,incongruent,absent,label,zebra,NA,1,2226
s29_zg_fs4,2,55,noise,absent,notCued,noise,NA,1,1268
s29_zg_fs4,2,56,incongruent,absent,label,rollingpin,NA,1,1165
s29_zg_fs4,2,57,congruent,present,label,swan,swan,1,951
s29_zg_fs4,2,58,incongruent,absent,label,pumpkin,NA,1,1266
s29_zg_fs4,2,59,incongruent,present,label,rollingpin,zebra,1,1163
s29_zg_fs4,2,60,incongruent,absent,label,kangaroo,NA,1,953
s29_zg_fs4,2,61,noise,present,notCued,noise,rollingpin,1,1055
s29_zg_fs4,2,62,noise,absent,notCued,noise,NA,1,1057
s29_zg_fs4,2,63,noise,absent,notCued,noise,NA,1,1059
s29_zg_fs4,2,64,noise,present,notCued,noise,turtle,1,1476
s29_zg_fs4,2,65,noise,absent,notCued,noise,NA,1,951
s29_zg_fs4,2,66,incongruent,absent,label,turtle,NA,1,1059
s29_zg_fs4,2,67,noise,present,notCued,noise,football,1,952
s29_zg_fs4,2,68,congruent,present,label,rollingpin,rollingpin,1,950
s29_zg_fs4,2,69,noise,present,notCued,noise,pumpkin,1,1919
s29_zg_fs4,2,70,noise,present,notCued,noise,turtle,1,1377
s29_zg_fs4,2,71,congruent,present,label,pumpkin,pumpkin,1,1391
s29_zg_fs4,2,72,incongruent,absent,label,kangaroo,NA,1,1633
s29_zg_fs4,2,73,incongruent,absent,label,pumpkin,NA,1,1057
s29_zg_fs4,2,74,incongruent,absent,label,turtle,NA,1,1268
s29_zg_fs4,2,75,noise,absent,notCued,noise,NA,1,847
s29_zg_fs4,2,76,noise,present,notCued,noise,swan,1,846
s29_zg_fs4,2,77,noise,absent,notCued,noise,NA,1,844
s29_zg_fs4,2,78,noise,absent,notCued,noise,NA,1,1585
s29_zg_fs4,2,79,congruent,present,label,kangaroo,kangaroo,1,1481
s29_zg_fs4,2,80,noise,absent,notCued,noise,NA,1,1162
s29_zg_fs4,2,81,noise,absent,notCued,noise,NA,1,1164
s29_zg_fs4,2,82,incongruent,absent,label,kangaroo,NA,1,1265
s29_zg_fs4,2,83,incongruent,absent,label,pumpkin,NA,1,847
s29_zg_fs4,2,84,incongruent,absent,label,banana,NA,1,846
s29_zg_fs4,2,85,noise,absent,notCued,noise,NA,1,1058
s29_zg_fs4,2,86,incongruent,absent,label,rollingpin,NA,1,950
s29_zg_fs4,2,87,incongruent,present,label,zebra,turtle,1,1374
s29_zg_fs4,2,88,incongruent,absent,label,rollingpin,NA,1,952
s29_zg_fs4,2,89,noise,present,notCued,noise,pumpkin,1,964
s29_zg_fs4,2,90,congruent,present,label,turtle,turtle,1,1163
s29_zg_fs4,2,91,incongruent,present,label,banana,swan,1,1056
s29_zg_fs4,2,92,noise,present,notCued,noise,kangaroo,1,1375
s29_zg_fs4,2,93,incongruent,present,label,rollingpin,banana,1,1373
s29_zg_fs4,2,94,noise,absent,notCued,noise,NA,1,1270
s29_zg_fs4,2,95,noise,absent,notCued,noise,NA,1,1373
s29_zg_fs4,2,96,incongruent,absent,label,rollingpin,NA,1,950
s29_zg_fs4,2,97,noise,present,notCued,noise,kangaroo,1,1266
s29_zg_fs4,2,98,congruent,present,label,zebra,zebra,1,847
s29_zg_fs4,2,99,incongruent,absent,label,football,NA,1,1636
s29_zg_fs4,2,100,noise,absent,notCued,noise,NA,1,1373
s29_zg_fs4,2,101,congruent,present,label,football,football,0,1480
s29_zg_fs4,2,102,noise,present,notCued,noise,football,1,1620
s29_zg_fs4,2,103,incongruent,absent,label,rollingpin,NA,1,2770
s29_zg_fs4,2,104,congruent,present,label,rollingpin,rollingpin,1,952
s29_zg_fs4,2,105,noise,present,notCued,noise,pumpkin,1,2079
s29_zg_fs4,2,106,noise,present,notCued,noise,banana,1,1583
s29_zg_fs4,2,107,noise,present,notCued,noise,zebra,1,845
s29_zg_fs4,2,108,congruent,present,label,pumpkin,pumpkin,1,1285
s29_zg_fs4,2,109,congruent,present,label,zebra,zebra,1,741
s29_zg_fs4,2,110,noise,present,notCued,noise,pumpkin,1,963
s29_zg_fs4,2,111,incongruent,absent,label,swan,NA,1,1950
s29_zg_fs4,2,112,noise,absent,notCued,noise,NA,1,1829
s29_zg_fs4,2,113,congruent,present,label,turtle,turtle,1,1373
s29_zg_fs4,2,114,noise,absent,notCued,noise,NA,1,1374
s29_zg_fs4,2,115,noise,absent,notCued,noise,NA,1,1371
s29_zg_fs4,2,116,congruent,present,label,rollingpin,rollingpin,1,845
s29_zg_fs4,2,117,noise,absent,notCued,noise,NA,1,1374
s29_zg_fs4,2,118,congruent,present,label,pumpkin,pumpkin,1,963
s29_zg_fs4,2,119,incongruent,absent,label,football,NA,1,1374
s29_zg_fs4,2,120,noise,absent,notCued,noise,NA,1,1477
s29_zg_fs4,2,121,noise,absent,notCued,noise,NA,1,1164
s29_zg_fs4,2,122,noise,absent,notCued,noise,NA,1,1267
s29_zg_fs4,2,123,noise,absent,notCued,noise,NA,1,1376
s29_zg_fs4,2,124,noise,absent,notCued,noise,NA,1,1589
s29_zg_fs4,2,125,noise,absent,notCued,noise,NA,1,1481
s29_zg_fs4,2,126,congruent,present,label,kangaroo,kangaroo,1,1165
s29_zg_fs4,2,127,incongruent,absent,label,football,NA,1,1058
s29_zg_fs4,2,128,noise,absent,notCued,noise,NA,1,1514
s29_zg_fs4,2,129,congruent,present,label,football,football,1,742
s29_zg_fs4,2,130,noise,absent,notCued,noise,NA,1,1376
s29_zg_fs4,2,131,incongruent,absent,label,zebra,NA,1,1376
s29_zg_fs4,2,132,noise,absent,notCued,noise,NA,1,1609
s29_zg_fs4,2,133,incongruent,absent,label,swan,NA,1,1268
s29_zg_fs4,2,134,noise,present,notCued,noise,banana,1,1618
s29_zg_fs4,2,135,incongruent,present,label,pumpkin,kangaroo,1,1554
s29_zg_fs4,2,136,noise,present,notCued,noise,kangaroo,1,1049
s29_zg_fs4,2,137,incongruent,absent,label,zebra,NA,1,1375
s29_zg_fs4,2,138,noise,present,notCued,noise,rollingpin,1,951
s29_zg_fs4,2,139,noise,present,notCued,noise,swan,1,1374
s29_zg_fs4,2,140,noise,present,notCued,noise,zebra,1,739
s29_zg_fs4,2,141,noise,absent,notCued,noise,NA,1,1056
s29_zg_fs4,2,142,noise,present,notCued,noise,rollingpin,1,1162
s29_zg_fs4,2,143,incongruent,present,label,zebra,pumpkin,1,1284
s29_zg_fs4,2,144,congruent,present,label,banana,banana,1,847
s29_zg_fs4,2,145,congruent,present,label,kangaroo,kangaroo,1,1373
s29_zg_fs4,2,146,noise,absent,notCued,noise,NA,1,951
s29_zg_fs4,2,147,noise,absent,notCued,noise,NA,1,846
s29_zg_fs4,2,148,noise,present,notCued,noise,banana,1,953
s29_zg_fs4,2,149,incongruent,absent,label,turtle,NA,1,1588
s29_zg_fs4,2,150,noise,absent,notCued,noise,NA,1,847
s29_zg_fs4,2,151,incongruent,absent,label,banana,NA,1,1504
s29_zg_fs4,2,152,noise,present,notCued,noise,kangaroo,1,950
s29_zg_fs4,2,153,noise,present,notCued,noise,swan,1,952
s29_zg_fs4,2,154,noise,present,notCued,noise,football,1,740
s29_zg_fs4,2,155,noise,present,notCued,noise,zebra,1,741
s29_zg_fs4,2,156,incongruent,present,label,zebra,rollingpin,1,742
s29_zg_fs4,2,157,noise,absent,notCued,noise,NA,1,951
s29_zg_fs4,2,158,incongruent,absent,label,turtle,NA,1,950
s29_zg_fs4,2,159,incongruent,absent,label,kangaroo,NA,1,740
s29_zg_fs4,2,160,congruent,present,label,pumpkin,pumpkin,1,642
s30_cjw_fs4,1,1,congruent,present,label,swan,swan,0,1632
s30_cjw_fs4,1,2,noise,present,notCued,noise,football,1,1752
s30_cjw_fs4,1,3,incongruent,present,label,banana,football,1,2022
s30_cjw_fs4,1,4,noise,present,notCued,noise,rollingpin,0,2069
s30_cjw_fs4,1,5,incongruent,absent,label,football,NA,0,1161
s30_cjw_fs4,1,6,noise,present,notCued,noise,banana,0,1695
s30_cjw_fs4,1,7,incongruent,absent,label,zebra,NA,1,1975
s30_cjw_fs4,1,8,incongruent,present,label,banana,swan,1,1779
s30_cjw_fs4,1,9,congruent,present,label,rollingpin,rollingpin,1,1858
s30_cjw_fs4,1,10,noise,absent,notCued,noise,NA,1,1911
s30_cjw_fs4,1,11,incongruent,absent,label,banana,NA,1,2073
s30_cjw_fs4,1,12,congruent,present,label,rollingpin,rollingpin,0,2293
s30_cjw_fs4,1,13,noise,present,notCued,noise,zebra,0,1954
s30_cjw_fs4,1,14,congruent,present,label,pumpkin,pumpkin,0,2669
s30_cjw_fs4,1,15,noise,absent,notCued,noise,NA,1,2293
s30_cjw_fs4,1,16,congruent,present,label,pumpkin,pumpkin,0,2174
s30_cjw_fs4,1,17,noise,absent,notCued,noise,NA,0,2740
s30_cjw_fs4,1,18,incongruent,absent,label,zebra,NA,0,2425
s30_cjw_fs4,1,19,congruent,present,label,kangaroo,kangaroo,0,2180
s30_cjw_fs4,1,20,noise,present,notCued,noise,kangaroo,1,2182
s30_cjw_fs4,1,21,congruent,present,label,turtle,turtle,1,2004
s30_cjw_fs4,1,22,incongruent,absent,label,football,NA,1,2023
s30_cjw_fs4,1,23,noise,absent,notCued,noise,NA,1,1922
s30_cjw_fs4,1,24,incongruent,absent,label,kangaroo,NA,1,2704
s30_cjw_fs4,1,25,noise,absent,notCued,noise,NA,1,1900
s30_cjw_fs4,1,26,incongruent,absent,label,banana,NA,0,1734
s30_cjw_fs4,1,27,noise,absent,notCued,noise,NA,1,2902
s30_cjw_fs4,1,28,noise,absent,notCued,noise,NA,0,1260
s30_cjw_fs4,1,29,noise,present,notCued,noise,banana,1,1887
s30_cjw_fs4,1,30,noise,present,notCued,noise,zebra,1,1921
s30_cjw_fs4,1,31,noise,absent,notCued,noise,NA,1,1944
s30_cjw_fs4,1,32,incongruent,absent,label,pumpkin,NA,0,2054
s30_cjw_fs4,1,33,noise,absent,notCued,noise,NA,0,2210
s30_cjw_fs4,1,34,incongruent,absent,label,turtle,NA,1,1159
s30_cjw_fs4,1,35,congruent,present,label,swan,swan,0,2078
s30_cjw_fs4,1,36,congruent,present,label,swan,swan,1,1371
s30_cjw_fs4,1,37,congruent,present,label,swan,swan,0,1373
s30_cjw_fs4,1,38,noise,present,notCued,noise,swan,1,1582
s30_cjw_fs4,1,39,noise,absent,notCued,noise,NA,0,1639
s30_cjw_fs4,1,40,noise,absent,notCued,noise,NA,1,1837
s30_cjw_fs4,1,41,incongruent,absent,label,rollingpin,NA,1,1765
s30_cjw_fs4,1,42,incongruent,present,label,turtle,zebra,1,1590
s30_cjw_fs4,1,43,noise,absent,notCued,noise,NA,0,1267
s30_cjw_fs4,1,44,noise,present,notCued,noise,swan,0,1878
s30_cjw_fs4,1,45,noise,absent,notCued,noise,NA,0,2342
s30_cjw_fs4,1,46,incongruent,absent,label,rollingpin,NA,0,2054
s30_cjw_fs4,1,47,incongruent,present,label,football,kangaroo,0,1370
s30_cjw_fs4,1,48,incongruent,absent,label,rollingpin,NA,1,1762
s30_cjw_fs4,1,49,noise,absent,notCued,noise,NA,0,1798
s30_cjw_fs4,1,50,noise,absent,notCued,noise,NA,0,1781
s30_cjw_fs4,1,51,congruent,present,label,banana,banana,0,2192
s30_cjw_fs4,1,52,incongruent,absent,label,rollingpin,NA,1,1794
s30_cjw_fs4,1,53,incongruent,absent,label,kangaroo,NA,0,1371
s30_cjw_fs4,1,54,noise,present,notCued,noise,football,1,1623
s30_cjw_fs4,1,55,congruent,present,label,rollingpin,rollingpin,0,845
s30_cjw_fs4,1,56,noise,absent,notCued,noise,NA,1,1837
s30_cjw_fs4,1,57,noise,absent,notCued,noise,NA,0,1876
s30_cjw_fs4,1,58,noise,absent,notCued,noise,NA,1,424
s30_cjw_fs4,1,59,incongruent,absent,label,swan,NA,1,1890
s30_cjw_fs4,1,60,incongruent,absent,label,zebra,NA,0,1371
s30_cjw_fs4,1,61,noise,absent,notCued,noise,NA,1,2134
s30_cjw_fs4,1,62,incongruent,absent,label,pumpkin,NA,1,1877
s30_cjw_fs4,1,63,incongruent,absent,label,turtle,NA,0,1831
s30_cjw_fs4,1,64,noise,present,notCued,noise,kangaroo,0,2195
s30_cjw_fs4,1,65,congruent,present,label,football,football,0,3265
s30_cjw_fs4,1,66,congruent,present,label,zebra,zebra,0,1557
s30_cjw_fs4,1,67,noise,absent,notCued,noise,NA,1,2453
s30_cjw_fs4,1,68,noise,present,notCued,noise,banana,0,2174
s30_cjw_fs4,1,69,incongruent,absent,label,pumpkin,NA,1,1845
s30_cjw_fs4,1,70,noise,absent,notCued,noise,NA,1,1847
s30_cjw_fs4,1,71,noise,present,notCued,noise,pumpkin,0,1606
s30_cjw_fs4,1,72,noise,absent,notCued,noise,NA,0,1528
s30_cjw_fs4,1,73,incongruent,present,label,pumpkin,rollingpin,0,1875
s30_cjw_fs4,1,74,noise,absent,notCued,noise,NA,0,1526
s30_cjw_fs4,1,75,noise,absent,notCued,noise,NA,0,1875
s30_cjw_fs4,1,76,incongruent,absent,label,rollingpin,NA,1,1476
s30_cjw_fs4,1,77,noise,absent,notCued,noise,NA,0,1621
s30_cjw_fs4,1,78,congruent,present,label,banana,banana,0,1744
s30_cjw_fs4,1,79,congruent,present,label,kangaroo,kangaroo,0,1761
s30_cjw_fs4,1,80,incongruent,present,label,football,turtle,1,1375
s30_cjw_fs4,1,81,noise,present,notCued,noise,pumpkin,0,1284
s30_cjw_fs4,1,82,noise,absent,notCued,noise,NA,1,634
s30_cjw_fs4,1,83,noise,absent,notCued,noise,NA,1,2054
s30_cjw_fs4,1,84,noise,present,notCued,noise,rollingpin,1,950
s30_cjw_fs4,1,85,incongruent,absent,label,rollingpin,NA,1,1633
s30_cjw_fs4,1,86,noise,absent,notCued,noise,NA,0,1507
s30_cjw_fs4,1,87,congruent,present,label,turtle,turtle,0,2082
s30_cjw_fs4,1,88,congruent,present,label,banana,banana,1,1857
s30_cjw_fs4,1,89,noise,absent,notCued,noise,NA,1,1894
s30_cjw_fs4,1,90,incongruent,absent,label,zebra,NA,1,1270
s30_cjw_fs4,1,91,noise,present,notCued,noise,banana,0,1392
s30_cjw_fs4,1,92,incongruent,absent,label,zebra,NA,1,1651
s30_cjw_fs4,1,93,noise,present,notCued,noise,football,0,1584
s30_cjw_fs4,1,94,noise,present,notCued,noise,kangaroo,0,1371
s30_cjw_fs4,1,95,congruent,present,label,kangaroo,kangaroo,0,1479
s30_cjw_fs4,1,96,incongruent,absent,label,kangaroo,NA,1,1925
s30_cjw_fs4,1,97,noise,absent,notCued,noise,NA,1,1584
s30_cjw_fs4,1,98,noise,present,notCued,noise,kangaroo,1,2864
s30_cjw_fs4,1,99,noise,absent,notCued,noise,NA,1,1795
s30_cjw_fs4,1,100,noise,present,notCued,noise,swan,0,1638
s30_cjw_fs4,1,101,incongruent,absent,label,pumpkin,NA,1,1939
s30_cjw_fs4,1,102,noise,present,notCued,noise,zebra,0,1508
s30_cjw_fs4,1,103,incongruent,absent,label,banana,NA,1,1896
s30_cjw_fs4,1,104,noise,absent,notCued,noise,NA,0,2020
s30_cjw_fs4,1,105,congruent,present,label,pumpkin,pumpkin,1,1886
s30_cjw_fs4,1,106,congruent,present,label,football,football,0,1874
s30_cjw_fs4,1,107,congruent,present,label,zebra,zebra,0,1976
s30_cjw_fs4,1,108,incongruent,absent,label,pumpkin,NA,1,2344
s30_cjw_fs4,1,109,incongruent,absent,label,kangaroo,NA,1,1936
s30_cjw_fs4,1,110,incongruent,absent,label,turtle,NA,1,2162
s30_cjw_fs4,1,111,incongruent,absent,label,turtle,NA,0,1505
s30_cjw_fs4,1,112,noise,absent,notCued,noise,NA,1,1867
s30_cjw_fs4,1,113,congruent,present,label,turtle,turtle,0,1844
s30_cjw_fs4,1,114,incongruent,absent,label,swan,NA,1,1583
s30_cjw_fs4,1,115,congruent,present,label,pumpkin,pumpkin,0,857
s30_cjw_fs4,1,116,congruent,present,label,football,football,0,1752
s30_cjw_fs4,1,117,congruent,present,label,football,football,0,952
s30_cjw_fs4,1,118,noise,present,notCued,noise,rollingpin,0,1477
s30_cjw_fs4,1,119,noise,present,notCued,noise,football,0,1897
s30_cjw_fs4,1,120,noise,present,notCued,noise,pumpkin,0,1606
s30_cjw_fs4,1,121,noise,present,notCued,noise,turtle,0,1864
s30_cjw_fs4,1,122,noise,present,notCued,noise,football,1,1584
s30_cjw_fs4,1,123,noise,absent,notCued,noise,NA,1,1925
s30_cjw_fs4,1,124,incongruent,present,label,kangaroo,banana,0,2059
s30_cjw_fs4,1,125,noise,present,notCued,noise,turtle,1,1161
s30_cjw_fs4,1,126,incongruent,absent,label,banana,NA,1,2038
s30_cjw_fs4,1,127,noise,present,notCued,noise,turtle,0,1584
s30_cjw_fs4,1,128,congruent,present,label,zebra,zebra,0,1476
s30_cjw_fs4,1,129,noise,present,notCued,noise,zebra,1,1718
s30_cjw_fs4,1,130,noise,absent,notCued,noise,NA,1,2181
s30_cjw_fs4,1,131,incongruent,absent,label,kangaroo,NA,1,2177
s30_cjw_fs4,1,132,noise,present,notCued,noise,pumpkin,1,1855
s30_cjw_fs4,1,133,incongruent,absent,label,football,NA,1,2102
s30_cjw_fs4,1,134,noise,absent,notCued,noise,NA,0,2646
s30_cjw_fs4,1,135,noise,absent,notCued,noise,NA,1,1959
s30_cjw_fs4,1,136,incongruent,present,label,kangaroo,pumpkin,0,1915
s30_cjw_fs4,1,137,incongruent,absent,label,swan,NA,0,2192
s30_cjw_fs4,1,138,noise,present,notCued,noise,rollingpin,0,1582
s30_cjw_fs4,1,139,incongruent,absent,label,rollingpin,NA,0,1266
s30_cjw_fs4,1,140,noise,absent,notCued,noise,NA,0,1161
s30_cjw_fs4,1,141,noise,present,notCued,noise,turtle,0,1477
s30_cjw_fs4,1,142,incongruent,absent,label,football,NA,0,1849
s30_cjw_fs4,1,143,noise,present,notCued,noise,swan,0,1586
s30_cjw_fs4,1,144,noise,present,notCued,noise,banana,0,1829
s30_cjw_fs4,1,145,congruent,present,label,zebra,zebra,1,1847
s30_cjw_fs4,1,146,incongruent,absent,label,kangaroo,NA,1,1477
s30_cjw_fs4,1,147,congruent,present,label,turtle,turtle,0,2101
s30_cjw_fs4,1,148,noise,present,notCued,noise,swan,0,1859
s30_cjw_fs4,1,149,congruent,present,label,banana,banana,0,1824
s30_cjw_fs4,1,150,noise,present,notCued,noise,zebra,0,2100
s30_cjw_fs4,1,151,incongruent,absent,label,swan,NA,1,1872
s30_cjw_fs4,1,152,noise,present,notCued,noise,pumpkin,0,1983
s30_cjw_fs4,1,153,noise,present,notCued,noise,turtle,1,1478
s30_cjw_fs4,1,154,noise,absent,notCued,noise,NA,1,2132
s30_cjw_fs4,1,155,noise,present,notCued,noise,kangaroo,0,1925
s30_cjw_fs4,1,156,noise,present,notCued,noise,rollingpin,0,1861
s30_cjw_fs4,1,157,congruent,present,label,rollingpin,rollingpin,0,1581
s30_cjw_fs4,1,158,incongruent,absent,label,banana,NA,1,1919
s30_cjw_fs4,1,159,congruent,present,label,kangaroo,kangaroo,0,1779
s30_cjw_fs4,1,160,noise,absent,notCued,noise,NA,1,1828
s30_cjw_fs4,2,1,incongruent,present,label,football,turtle,0,1733
s30_cjw_fs4,2,2,incongruent,present,label,kangaroo,banana,0,1883
s30_cjw_fs4,2,3,noise,present,notCued,noise,rollingpin,1,1372
s30_cjw_fs4,2,4,incongruent,absent,label,turtle,NA,1,1476
s30_cjw_fs4,2,5,noise,present,notCued,noise,swan,0,1558
s30_cjw_fs4,2,6,noise,present,notCued,noise,banana,0,1177
s30_cjw_fs4,2,7,incongruent,absent,label,football,NA,0,1523
s30_cjw_fs4,2,8,noise,absent,notCued,noise,NA,1,1584
s30_cjw_fs4,2,9,noise,present,notCued,noise,zebra,0,2014
s30_cjw_fs4,2,10,noise,absent,notCued,noise,NA,1,1651
s30_cjw_fs4,2,11,noise,present,notCued,noise,pumpkin,0,1551
s30_cjw_fs4,2,12,noise,present,notCued,noise,banana,1,1284
s30_cjw_fs4,2,13,incongruent,absent,label,zebra,NA,1,1269
s30_cjw_fs4,2,14,noise,absent,notCued,noise,NA,1,1477
s30_cjw_fs4,2,15,incongruent,absent,label,pumpkin,NA,1,1933
s30_cjw_fs4,2,16,noise,absent,notCued,noise,NA,0,1579
s30_cjw_fs4,2,17,noise,present,notCued,noise,turtle,0,1477
s30_cjw_fs4,2,18,noise,absent,notCued,noise,NA,1,1543
s30_cjw_fs4,2,19,incongruent,absent,label,kangaroo,NA,1,1700
s30_cjw_fs4,2,20,incongruent,absent,label,football,NA,1,1555
s30_cjw_fs4,2,21,congruent,present,label,turtle,turtle,0,1715
s30_cjw_fs4,2,22,noise,absent,notCued,noise,NA,1,2052
s30_cjw_fs4,2,23,noise,present,notCued,noise,rollingpin,0,1878
s30_cjw_fs4,2,24,noise,absent,notCued,noise,NA,1,1766
s30_cjw_fs4,2,25,congruent,present,label,pumpkin,pumpkin,1,1837
s30_cjw_fs4,2,26,incongruent,absent,label,swan,NA,1,1729
s30_cjw_fs4,2,27,incongruent,absent,label,rollingpin,NA,1,1699
s30_cjw_fs4,2,28,incongruent,absent,label,rollingpin,NA,1,1554
s30_cjw_fs4,2,29,incongruent,absent,label,rollingpin,NA,1,1887
s30_cjw_fs4,2,30,congruent,present,label,banana,banana,0,1760
s30_cjw_fs4,2,31,incongruent,absent,label,banana,NA,1,1847
s30_cjw_fs4,2,32,incongruent,absent,label,rollingpin,NA,1,1940
s30_cjw_fs4,2,33,noise,present,notCued,noise,rollingpin,0,1780
s30_cjw_fs4,2,34,noise,present,notCued,noise,banana,0,1499
s30_cjw_fs4,2,35,incongruent,absent,label,kangaroo,NA,0,2080
s30_cjw_fs4,2,36,incongruent,absent,label,banana,NA,1,1654
s30_cjw_fs4,2,37,noise,absent,notCued,noise,NA,1,1894
s30_cjw_fs4,2,38,noise,absent,notCued,noise,NA,1,1527
s30_cjw_fs4,2,39,noise,absent,notCued,noise,NA,1,1669
s30_cjw_fs4,2,40,noise,present,notCued,noise,swan,1,1665
s30_cjw_fs4,2,41,noise,present,notCued,noise,kangaroo,0,1650
s30_cjw_fs4,2,42,noise,absent,notCued,noise,NA,1,1056
s30_cjw_fs4,2,43,congruent,present,label,pumpkin,pumpkin,0,1284
s30_cjw_fs4,2,44,noise,absent,notCued,noise,NA,1,1479
s30_cjw_fs4,2,45,noise,present,notCued,noise,turtle,0,1534
s30_cjw_fs4,2,46,noise,present,notCued,noise,zebra,0,1478
s30_cjw_fs4,2,47,noise,absent,notCued,noise,NA,1,1372
s30_cjw_fs4,2,48,noise,absent,notCued,noise,NA,1,2644
s30_cjw_fs4,2,49,noise,present,notCued,noise,banana,1,2767
s30_cjw_fs4,2,50,incongruent,absent,label,banana,NA,1,1583
s30_cjw_fs4,2,51,noise,absent,notCued,noise,NA,1,1775
s30_cjw_fs4,2,52,noise,present,notCued,noise,football,0,1587
s30_cjw_fs4,2,53,incongruent,present,label,football,kangaroo,1,2761
s30_cjw_fs4,2,54,noise,absent,notCued,noise,NA,1,635
s30_cjw_fs4,2,55,noise,present,notCued,noise,rollingpin,1,1480
s30_cjw_fs4,2,56,noise,absent,notCued,noise,NA,1,1828
s30_cjw_fs4,2,57,noise,present,notCued,noise,zebra,0,951
s30_cjw_fs4,2,58,congruent,present,label,swan,swan,0,1479
s30_cjw_fs4,2,59,noise,absent,notCued,noise,NA,1,1632
s30_cjw_fs4,2,60,noise,present,notCued,noise,zebra,0,1162
s30_cjw_fs4,2,61,congruent,present,label,kangaroo,kangaroo,0,1585
s30_cjw_fs4,2,62,incongruent,absent,label,turtle,NA,1,1511
s30_cjw_fs4,2,63,noise,present,notCued,noise,football,0,1163
s30_cjw_fs4,2,64,noise,absent,notCued,noise,NA,1,1056
s30_cjw_fs4,2,65,noise,absent,notCued,noise,NA,1,1372
s30_cjw_fs4,2,66,incongruent,absent,label,pumpkin,NA,1,1623
s30_cjw_fs4,2,67,congruent,present,label,football,football,1,3060
s30_cjw_fs4,2,68,incongruent,absent,label,zebra,NA,1,1721
s30_cjw_fs4,2,69,incongruent,absent,label,football,NA,1,1585
s30_cjw_fs4,2,70,noise,absent,notCued,noise,NA,0,2270
s30_cjw_fs4,2,71,incongruent,present,label,kangaroo,pumpkin,0,1723
s30_cjw_fs4,2,72,incongruent,absent,label,zebra,NA,1,1782
s30_cjw_fs4,2,73,incongruent,absent,label,rollingpin,NA,0,2484
s30_cjw_fs4,2,74,noise,present,notCued,noise,turtle,0,422
s30_cjw_fs4,2,75,noise,absent,notCued,noise,NA,1,1657
s30_cjw_fs4,2,76,incongruent,absent,label,rollingpin,NA,1,1478
s30_cjw_fs4,2,77,incongruent,present,label,pumpkin,rollingpin,0,1956
s30_cjw_fs4,2,78,congruent,present,label,kangaroo,kangaroo,0,1376
s30_cjw_fs4,2,79,incongruent,absent,label,swan,NA,1,1161
s30_cjw_fs4,2,80,noise,present,notCued,noise,pumpkin,1,1177
s30_cjw_fs4,2,81,noise,present,notCued,noise,turtle,0,1635
s30_cjw_fs4,2,82,noise,present,notCued,noise,pumpkin,0,1177
s30_cjw_fs4,2,83,noise,present,notCued,noise,zebra,0,1057
s30_cjw_fs4,2,84,incongruent,present,label,banana,swan,0,1269
s30_cjw_fs4,2,85,noise,present,notCued,noise,banana,0,1605
s30_cjw_fs4,2,86,noise,present,notCued,noise,rollingpin,0,1478
s30_cjw_fs4,2,87,congruent,present,label,pumpkin,pumpkin,1,1284
s30_cjw_fs4,2,88,noise,absent,notCued,noise,NA,0,1686
s30_cjw_fs4,2,89,noise,present,notCued,noise,pumpkin,0,1498
s30_cjw_fs4,2,90,incongruent,present,label,turtle,zebra,0,1583
s30_cjw_fs4,2,91,incongruent,absent,label,turtle,NA,1,1583
s30_cjw_fs4,2,92,congruent,present,label,zebra,zebra,0,1670
s30_cjw_fs4,2,93,noise,absent,notCued,noise,NA,1,1585
s30_cjw_fs4,2,94,congruent,present,label,banana,banana,0,1177
s30_cjw_fs4,2,95,incongruent,absent,label,turtle,NA,1,1478
s30_cjw_fs4,2,96,congruent,present,label,swan,swan,0,1584
s30_cjw_fs4,2,97,incongruent,absent,label,banana,NA,1,1588
s30_cjw_fs4,2,98,noise,present,notCued,noise,football,0,1479
s30_cjw_fs4,2,99,noise,absent,notCued,noise,NA,1,634
s30_cjw_fs4,2,100,congruent,present,label,kangaroo,kangaroo,0,1159
s30_cjw_fs4,2,101,noise,present,notCued,noise,turtle,0,1057
s30_cjw_fs4,2,102,noise,present,notCued,noise,swan,0,740
s30_cjw_fs4,2,103,congruent,present,label,banana,banana,0,1070
s30_cjw_fs4,2,104,congruent,present,label,football,football,1,1056
s30_cjw_fs4,2,105,noise,present,notCued,noise,football,0,952
s30_cjw_fs4,2,106,noise,absent,notCued,noise,NA,1,739
s30_cjw_fs4,2,107,congruent,present,label,pumpkin,pumpkin,0,1070
s30_cjw_fs4,2,108,noise,absent,notCued,noise,NA,1,1162
s30_cjw_fs4,2,109,noise,absent,notCued,noise,NA,1,1162
s30_cjw_fs4,2,110,noise,present,notCued,noise,kangaroo,0,528
s30_cjw_fs4,2,111,congruent,present,label,football,football,0,1267
s30_cjw_fs4,2,112,congruent,present,label,rollingpin,rollingpin,0,1163
s30_cjw_fs4,2,113,incongruent,absent,label,pumpkin,NA,0,1372
s30_cjw_fs4,2,114,congruent,present,label,rollingpin,rollingpin,0,950
s30_cjw_fs4,2,115,congruent,present,label,banana,banana,0,1177
s30_cjw_fs4,2,116,congruent,present,label,rollingpin,rollingpin,0,1583
s30_cjw_fs4,2,117,noise,present,notCued,noise,kangaroo,0,1056
s30_cjw_fs4,2,118,incongruent,absent,label,zebra,NA,1,1370
s30_cjw_fs4,2,119,incongruent,absent,label,zebra,NA,1,2696
s30_cjw_fs4,2,120,noise,absent,notCued,noise,NA,1,1582
s30_cjw_fs4,2,121,noise,present,notCued,noise,pumpkin,0,2371
s30_cjw_fs4,2,122,noise,absent,notCued,noise,NA,1,1957
s30_cjw_fs4,2,123,noise,present,notCued,noise,kangaroo,1,1161
s30_cjw_fs4,2,124,incongruent,absent,label,kangaroo,NA,1,741
s30_cjw_fs4,2,125,congruent,present,label,turtle,turtle,1,845
s30_cjw_fs4,2,126,incongruent,absent,label,kangaroo,NA,1,1160
s30_cjw_fs4,2,127,congruent,present,label,zebra,zebra,0,4066
s30_cjw_fs4,2,128,noise,absent,notCued,noise,NA,1,1162
s30_cjw_fs4,2,129,congruent,present,label,swan,swan,1,633
s30_cjw_fs4,2,130,noise,present,notCued,noise,swan,1,1581
s30_cjw_fs4,2,131,incongruent,absent,label,swan,NA,1,2210
s30_cjw_fs4,2,132,congruent,present,label,football,football,1,1267
s30_cjw_fs4,2,133,noise,absent,notCued,noise,NA,1,739
s30_cjw_fs4,2,134,incongruent,absent,label,banana,NA,1,950
s30_cjw_fs4,2,135,noise,present,notCued,noise,football,1,951
s30_cjw_fs4,2,136,incongruent,absent,label,pumpkin,NA,1,1373
s30_cjw_fs4,2,137,incongruent,absent,label,football,NA,1,950
s30_cjw_fs4,2,138,noise,absent,notCued,noise,NA,1,1584
s30_cjw_fs4,2,139,noise,absent,notCued,noise,NA,1,846
s30_cjw_fs4,2,140,noise,absent,notCued,noise,NA,1,1267
s30_cjw_fs4,2,141,congruent,present,label,kangaroo,kangaroo,0,846
s30_cjw_fs4,2,142,noise,absent,notCued,noise,NA,1,1477
s30_cjw_fs4,2,143,congruent,present,label,rollingpin,rollingpin,1,1481
s30_cjw_fs4,2,144,incongruent,present,label,banana,football,1,1161
s30_cjw_fs4,2,145,incongruent,absent,label,pumpkin,NA,1,951
s30_cjw_fs4,2,146,congruent,present,label,swan,swan,1,741
s30_cjw_fs4,2,147,incongruent,absent,label,rollingpin,NA,1,1056
s30_cjw_fs4,2,148,congruent,present,label,turtle,turtle,1,737
s30_cjw_fs4,2,149,noise,absent,notCued,noise,NA,0,1375
s30_cjw_fs4,2,150,noise,absent,notCued,noise,NA,1,1056
s30_cjw_fs4,2,151,noise,present,notCued,noise,kangaroo,0,845
s30_cjw_fs4,2,152,noise,absent,notCued,noise,NA,1,846
s30_cjw_fs4,2,153,congruent,present,label,turtle,turtle,1,1161
s30_cjw_fs4,2,154,incongruent,absent,label,swan,NA,1,1267
s30_cjw_fs4,2,155,incongruent,absent,label,kangaroo,NA,1,1368
s30_cjw_fs4,2,156,noise,present,notCued,noise,swan,1,741
s30_cjw_fs4,2,157,noise,absent,notCued,noise,NA,1,949
s30_cjw_fs4,2,158,congruent,present,label,zebra,zebra,1,845
s30_cjw_fs4,2,159,congruent,present,label,zebra,zebra,1,2261
s30_cjw_fs4,2,160,incongruent,absent,label,kangaroo,NA,1,741
s31_eka_fs4,1,1,incongruent,absent,label,pumpkin,NA,0,3317
s31_eka_fs4,1,2,noise,present,notCued,noise,football,0,5141
s31_eka_fs4,1,3,incongruent,absent,label,zebra,NA,1,3222
s31_eka_fs4,1,4,congruent,present,label,rollingpin,rollingpin,1,3108
s31_eka_fs4,1,5,noise,absent,notCued,noise,NA,0,3892
s31_eka_fs4,1,6,incongruent,absent,label,kangaroo,NA,0,3826
s31_eka_fs4,1,7,noise,absent,notCued,noise,NA,0,4117
s31_eka_fs4,1,8,noise,present,notCued,noise,turtle,1,2259
s31_eka_fs4,1,9,congruent,present,label,banana,banana,0,2377
s31_eka_fs4,1,10,noise,absent,notCued,noise,NA,1,2342
s31_eka_fs4,1,11,noise,absent,notCued,noise,NA,1,2261
s31_eka_fs4,1,12,incongruent,absent,label,rollingpin,NA,0,2098
s31_eka_fs4,1,13,congruent,present,label,swan,swan,1,3278
s31_eka_fs4,1,14,congruent,present,label,banana,banana,0,4400
s31_eka_fs4,1,15,incongruent,absent,label,football,NA,0,2434
s31_eka_fs4,1,16,noise,present,notCued,noise,zebra,1,4051
s31_eka_fs4,1,17,incongruent,absent,label,swan,NA,1,2396
s31_eka_fs4,1,18,noise,absent,notCued,noise,NA,1,2228
s31_eka_fs4,1,19,noise,absent,notCued,noise,NA,0,2194
s31_eka_fs4,1,20,noise,absent,notCued,noise,NA,1,2321
s31_eka_fs4,1,21,noise,present,notCued,noise,rollingpin,0,1970
s31_eka_fs4,1,22,noise,present,notCued,noise,turtle,1,1055
s31_eka_fs4,1,23,incongruent,absent,label,kangaroo,NA,0,2690
s31_eka_fs4,1,24,noise,present,notCued,noise,swan,1,2212
s31_eka_fs4,1,25,noise,present,notCued,noise,rollingpin,0,2518
s31_eka_fs4,1,26,incongruent,absent,label,rollingpin,NA,0,2772
s31_eka_fs4,1,27,congruent,present,label,banana,banana,0,2430
s31_eka_fs4,1,28,noise,absent,notCued,noise,NA,0,2757
s31_eka_fs4,1,29,incongruent,absent,label,zebra,NA,0,3736
s31_eka_fs4,1,30,noise,present,notCued,noise,swan,0,2564
s31_eka_fs4,1,31,congruent,present,label,football,football,0,5665
s31_eka_fs4,1,32,incongruent,absent,label,rollingpin,NA,0,2180
s31_eka_fs4,1,33,noise,present,notCued,noise,football,1,2578
s31_eka_fs4,1,34,noise,present,notCued,noise,rollingpin,1,3602
s31_eka_fs4,1,35,incongruent,absent,label,turtle,NA,0,2276
s31_eka_fs4,1,36,incongruent,absent,label,banana,NA,1,2374
s31_eka_fs4,1,37,incongruent,present,label,banana,rollingpin,0,1890
s31_eka_fs4,1,38,noise,present,notCued,noise,kangaroo,1,2422
s31_eka_fs4,1,39,noise,present,notCued,noise,football,1,2434
s31_eka_fs4,1,40,incongruent,present,label,football,pumpkin,1,1933
s31_eka_fs4,1,41,incongruent,absent,label,zebra,NA,0,2533
s31_eka_fs4,1,42,noise,present,notCued,noise,zebra,0,2180
s31_eka_fs4,1,43,noise,present,notCued,noise,pumpkin,1,3503
s31_eka_fs4,1,44,congruent,present,label,zebra,zebra,1,2171
s31_eka_fs4,1,45,congruent,present,label,pumpkin,pumpkin,1,2830
s31_eka_fs4,1,46,noise,absent,notCued,noise,NA,1,3209
s31_eka_fs4,1,47,incongruent,absent,label,kangaroo,NA,0,2701
s31_eka_fs4,1,48,noise,absent,notCued,noise,NA,0,3204
s31_eka_fs4,1,49,noise,absent,notCued,noise,NA,1,2709
s31_eka_fs4,1,50,noise,present,notCued,noise,football,0,1891
s31_eka_fs4,1,51,incongruent,absent,label,kangaroo,NA,0,1953
s31_eka_fs4,1,52,incongruent,absent,label,zebra,NA,0,2134
s31_eka_fs4,1,53,incongruent,absent,label,banana,NA,1,2233
s31_eka_fs4,1,54,incongruent,absent,label,turtle,NA,0,2755
s31_eka_fs4,1,55,noise,absent,notCued,noise,NA,1,2377
s31_eka_fs4,1,56,congruent,present,label,pumpkin,pumpkin,0,2446
s31_eka_fs4,1,57,incongruent,absent,label,pumpkin,NA,1,1877
s31_eka_fs4,1,58,congruent,present,label,kangaroo,kangaroo,1,2076
s31_eka_fs4,1,59,congruent,present,label,turtle,turtle,1,3138
s31_eka_fs4,1,60,noise,absent,notCued,noise,NA,0,6869
s31_eka_fs4,1,61,congruent,present,label,turtle,turtle,1,2371
s31_eka_fs4,1,62,incongruent,absent,label,kangaroo,NA,0,1587
s31_eka_fs4,1,63,noise,absent,notCued,noise,NA,0,2679
s31_eka_fs4,1,64,congruent,present,label,swan,swan,1,2304
s31_eka_fs4,1,65,noise,present,notCued,noise,zebra,1,2182
s31_eka_fs4,1,66,congruent,present,label,zebra,zebra,1,3015
s31_eka_fs4,1,67,noise,absent,notCued,noise,NA,1,2120
s31_eka_fs4,1,68,congruent,present,label,turtle,turtle,0,2096
s31_eka_fs4,1,69,incongruent,absent,label,banana,NA,0,1522
s31_eka_fs4,1,70,congruent,present,label,kangaroo,kangaroo,1,2754
s31_eka_fs4,1,71,noise,present,notCued,noise,rollingpin,1,3089
s31_eka_fs4,1,72,noise,present,notCued,noise,swan,0,1939
s31_eka_fs4,1,73,noise,absent,notCued,noise,NA,1,2532
s31_eka_fs4,1,74,congruent,present,label,football,football,1,2067
s31_eka_fs4,1,75,incongruent,absent,label,zebra,NA,0,2935
s31_eka_fs4,1,76,noise,absent,notCued,noise,NA,0,1988
