participant,trial,condition,pic_presence,prime,target,resp_presence,resp_acc,RT
10,1,congruent,present,hoed,32_T_Hat.jpg,1,1,1345
10,2,congruent,present,raket,17_T_Rocket.jpg,1,1,1448
10,3,congruent,present,raket,17_T_Rocket.jpg,1,1,592
10,4,noPic,absent,spuitje,blank.jpg,0,1,898
10,5,congruent,present,bonbon,52_T_Bonbon.jpg,0,0,779
10,6,noPic,absent,pen,blank.jpg,0,1,778
10,7,congruent,present,banaan,1_T_Banaan.jpg,0,0,914
10,8,noPic,absent,spuitje,blank.jpg,0,1,744
10,9,noPic,absent,raket,blank.jpg,0,1,916
10,10,congruent,present,ball,4_T_Ball.jpg,1,1,540
10,11,congruent,present,raket,17_T_Rocket.jpg,1,1,839
10,12,noPic,absent,bonbon,blank.jpg,0,1,574
10,13,noPic,absent,hersens,blank.jpg,0,1,606
10,14,noPic,absent,fluit,blank.jpg,0,1,852
10,15,noPic,absent,fles,blank.jpg,0,1,798
10,16,noPic,absent,kussen,blank.jpg,1,0,768
10,17,noPic,absent,palm,blank.jpg,0,1,992
10,18,noPic,absent,banaan,blank.jpg,0,1,739
10,19,noPic,absent,vlinder,blank.jpg,1,0,1001
10,20,incongruent,present,spuitje,36_T_Flute.jpg,0,0,881
10,21,congruent,present,spuitje,49_T_Injection.jpg,0,0,638
10,22,noPic,absent,kussen,blank.jpg,0,1,1469
10,23,congruent,present,hersens,30_S_Brain.jpg,0,0,1012
10,24,noPic,absent,fluit,blank.jpg,0,1,714
10,25,congruent,present,zweep,29_T_Whip.jpg,1,1,968
10,26,incongruent,present,kraan,52_T_Bonbon.jpg,1,1,993
10,27,congruent,present,palm,51_Control.jpg,1,1,770
10,28,noPic,absent,fles,blank.jpg,0,1,856
10,29,congruent,present,zweep,29_T_Whip.jpg,1,1,539
10,30,congruent,present,hark,38_T_Hark.jpg,0,0,841
10,31,noPic,absent,bonbon,blank.jpg,0,1,763
10,32,incongruent,present,raket,8_T_Bottle.jpg,0,0,616
10,33,noPic,absent,palm,blank.jpg,0,1,635
10,34,congruent,present,kussen,12_T_Cushion.jpg,0,0,732
10,35,noPic,absent,bonbon,blank.jpg,0,1,878
10,36,noPic,absent,kraan,blank.jpg,0,1,850
10,37,incongruent,present,spuitje,38_T_Hark.jpg,0,0,872
10,38,noPic,absent,fles,blank.jpg,0,1,699
10,39,incongruent,present,palm,49_T_Injection.jpg,0,0,709
10,40,noPic,absent,hoed,blank.jpg,0,1,624
10,41,congruent,present,zweep,29_T_Whip.jpg,1,1,771
10,42,incongruent,present,hoed,38_T_Hark.jpg,0,0,712
10,43,congruent,present,palm,51_Control.jpg,1,1,525
10,44,noPic,absent,hark,blank.jpg,0,1,843
10,45,congruent,present,kussen,12_T_Cushion.jpg,0,0,636
10,46,incongruent,present,kussen,17_T_Rocket.jpg,0,0,600
10,47,congruent,present,spuitje,49_T_Injection.jpg,0,0,738
10,48,noPic,absent,banaan,blank.jpg,0,1,698
10,49,congruent,present,kussen,12_T_Cushion.jpg,1,1,713
10,50,congruent,present,ball,4_T_Ball.jpg,1,1,723
10,51,noPic,absent,vlinder,blank.jpg,0,1,711
10,52,incongruent,present,kussen,29_T_Whip.jpg,0,0,673
10,53,incongruent,present,bonbon,50_T_Pen.jpg,0,0,637
10,54,incongruent,present,fluit,52_T_Bonbon.jpg,1,1,1183
10,55,noPic,absent,hersens,blank.jpg,0,1,819
10,56,incongruent,present,pen,51_Control.jpg,1,1,748
10,57,noPic,absent,zweep,blank.jpg,0,1,837
10,58,incongruent,present,hark,49_T_Injection.jpg,0,0,495
10,59,noPic,absent,hoed,blank.jpg,0,1,788
10,60,noPic,absent,fluit,blank.jpg,0,1,913
10,61,noPic,absent,raket,blank.jpg,0,1,727
10,62,noPic,absent,kussen,blank.jpg,0,1,824
10,63,noPic,absent,fluit,blank.jpg,0,1,472
10,64,congruent,present,kraan,39_T_Crane.jpg,0,0,765
10,65,noPic,absent,banaan,blank.jpg,0,1,754
10,66,congruent,present,hark,38_T_Hark.jpg,0,0,704
10,67,noPic,absent,ball,blank.jpg,0,1,675
10,68,incongruent,present,hark,36_T_Flute.jpg,0,0,666
10,69,noPic,absent,fluit,blank.jpg,0,1,690
10,70,congruent,present,spuitje,49_T_Injection.jpg,0,0,549
10,71,noPic,absent,zweep,blank.jpg,0,1,729
10,72,congruent,present,hersens,30_S_Brain.jpg,0,0,769
10,73,noPic,absent,kussen,blank.jpg,0,1,563
10,74,congruent,present,zweep,29_T_Whip.jpg,0,0,741
10,75,noPic,absent,kussen,blank.jpg,0,1,686
10,76,noPic,absent,hersens,blank.jpg,0,1,643
10,77,noPic,absent,vlinder,blank.jpg,0,1,774
10,78,noPic,absent,raket,blank.jpg,0,1,753
10,79,incongruent,present,fluit,32_T_Hat.jpg,0,0,734
10,80,congruent,present,fluit,36_T_Flute.jpg,0,0,748
10,81,noPic,absent,hark,blank.jpg,0,1,679
10,82,incongruent,present,fles,1_T_Banaan.jpg,0,0,780
10,83,noPic,absent,hersens,blank.jpg,0,1,564
10,84,congruent,present,vlinder,28_T_Butterfly.jpg,1,1,721
10,85,congruent,present,ball,4_T_Ball.jpg,1,1,551
10,86,congruent,present,kraan,39_T_Crane.jpg,1,1,823
10,87,noPic,absent,spuitje,blank.jpg,0,1,767
10,88,noPic,absent,kraan,blank.jpg,0,1,667
10,89,noPic,absent,pen,blank.jpg,0,1,559
10,90,congruent,present,kussen,12_T_Cushion.jpg,0,0,656
10,91,noPic,absent,pen,blank.jpg,0,1,771
10,92,congruent,present,hark,38_T_Hark.jpg,0,0,709
10,93,incongruent,present,hoed,49_T_Injection.jpg,0,0,876
10,94,incongruent,present,fles,4_T_Ball.jpg,0,0,845
10,95,congruent,present,hoed,32_T_Hat.jpg,0,0,710
10,96,noPic,absent,spuitje,blank.jpg,0,1,829
10,97,incongruent,present,banaan,28_T_Butterfly.jpg,1,1,544
10,98,incongruent,present,zweep,1_T_Banaan.jpg,0,0,845
10,99,noPic,absent,ball,blank.jpg,0,1,596
10,100,incongruent,present,kraan,50_T_Pen.jpg,0,0,774
10,101,noPic,absent,fles,blank.jpg,0,1,625
10,102,noPic,absent,spuitje,blank.jpg,0,1,789
10,103,incongruent,present,vlinder,29_T_Whip.jpg,1,1,834
10,104,noPic,absent,spuitje,blank.jpg,0,1,720
10,105,noPic,absent,palm,blank.jpg,0,1,579
10,106,noPic,absent,fluit,blank.jpg,0,1,706
10,107,congruent,present,pen,50_T_Pen.jpg,0,0,647
10,108,congruent,present,palm,51_Control.jpg,1,1,564
10,109,noPic,absent,ball,blank.jpg,0,1,699
10,110,incongruent,present,fluit,51_Control.jpg,1,1,612
10,111,incongruent,present,ball,1_T_Banaan.jpg,0,0,647
10,112,congruent,present,banaan,1_T_Banaan.jpg,0,0,557
10,113,noPic,absent,kraan,blank.jpg,0,1,616
10,114,congruent,present,fluit,36_T_Flute.jpg,0,0,543
10,115,congruent,present,vlinder,28_T_Butterfly.jpg,0,0,600
10,116,noPic,absent,hark,blank.jpg,0,1,579
10,117,noPic,absent,hoed,blank.jpg,0,1,701
10,118,noPic,absent,vlinder,blank.jpg,0,1,725
10,119,incongruent,present,kussen,30_S_Brain.jpg,0,0,834
10,120,noPic,absent,bonbon,blank.jpg,0,1,715
10,121,incongruent,present,banaan,4_T_Ball.jpg,1,1,561
10,122,noPic,absent,pen,blank.jpg,0,1,637
10,123,noPic,absent,pen,blank.jpg,0,1,564
10,124,noPic,absent,ball,blank.jpg,0,1,952
10,125,noPic,absent,kraan,blank.jpg,0,1,743
10,126,noPic,absent,vlinder,blank.jpg,0,1,706
10,127,incongruent,present,vlinder,30_S_Brain.jpg,0,0,809
10,128,noPic,absent,kraan,blank.jpg,0,1,731
10,129,congruent,present,fles,8_T_Bottle.jpg,1,1,639
10,130,noPic,absent,bonbon,blank.jpg,0,1,754
10,131,noPic,absent,kussen,blank.jpg,0,1,651
10,132,noPic,absent,ball,blank.jpg,0,1,686
10,133,incongruent,present,pen,39_T_Crane.jpg,1,1,618
10,134,noPic,absent,banaan,blank.jpg,0,1,669
10,135,incongruent,present,hoed,39_T_Crane.jpg,1,1,577
10,136,noPic,absent,fles,blank.jpg,0,1,662
10,137,noPic,absent,ball,blank.jpg,0,1,748
10,138,congruent,present,pen,50_T_Pen.jpg,0,0,736
10,139,incongruent,present,hoed,36_T_Flute.jpg,0,0,641
10,140,incongruent,present,ball,8_T_Bottle.jpg,0,0,640
10,141,noPic,absent,ball,blank.jpg,0,1,666
10,142,congruent,present,pen,50_T_Pen.jpg,1,1,760
10,143,noPic,absent,zweep,blank.jpg,0,1,768
10,144,incongruent,present,spuitje,39_T_Crane.jpg,1,1,639
10,145,noPic,absent,palm,blank.jpg,0,1,747
10,146,noPic,absent,vlinder,blank.jpg,0,1,779
10,147,congruent,present,bonbon,52_T_Bonbon.jpg,1,1,605
10,148,incongruent,present,zweep,30_S_Brain.jpg,0,0,717
10,149,noPic,absent,pen,blank.jpg,0,1,769
10,150,noPic,absent,raket,blank.jpg,0,1,862
10,151,incongruent,present,hersens,12_T_Cushion.jpg,0,0,805
10,152,noPic,absent,raket,blank.jpg,0,1,786
10,153,noPic,absent,pen,blank.jpg,0,1,693
10,154,noPic,absent,bonbon,blank.jpg,0,1,737
10,155,congruent,present,hark,38_T_Hark.jpg,0,0,767
10,156,noPic,absent,kussen,blank.jpg,0,1,717
10,157,noPic,absent,vlinder,blank.jpg,0,1,766
10,158,incongruent,present,hark,32_T_Hat.jpg,1,1,723
10,159,congruent,present,raket,17_T_Rocket.jpg,0,0,702
10,160,noPic,absent,kraan,blank.jpg,0,1,799
10,161,incongruent,present,hersens,17_T_Rocket.jpg,0,0,696
10,162,incongruent,present,vlinder,8_T_Bottle.jpg,0,0,605
10,163,noPic,absent,hark,blank.jpg,0,1,625
10,164,incongruent,present,ball,17_T_Rocket.jpg,0,0,702
10,165,congruent,present,vlinder,28_T_Butterfly.jpg,0,0,701
10,166,noPic,absent,pen,blank.jpg,0,1,687
10,167,incongruent,present,fles,30_S_Brain.jpg,0,0,725
10,168,noPic,absent,fles,blank.jpg,0,1,790
10,169,congruent,present,fles,8_T_Bottle.jpg,1,1,824
10,170,noPic,absent,spuitje,blank.jpg,0,1,946
10,171,noPic,absent,hersens,blank.jpg,0,1,859
10,172,congruent,present,hoed,32_T_Hat.jpg,0,0,801
10,173,noPic,absent,raket,blank.jpg,0,1,695
10,174,incongruent,present,raket,4_T_Ball.jpg,0,0,791
10,175,noPic,absent,raket,blank.jpg,0,1,766
10,176,incongruent,present,palm,52_T_Bonbon.jpg,0,0,693
10,177,incongruent,present,ball,12_T_Cushion.jpg,0,0,685
10,178,incongruent,present,fluit,50_T_Pen.jpg,0,0,717
10,179,noPic,absent,banaan,blank.jpg,0,1,697
10,180,incongruent,present,pen,49_T_Injection.jpg,0,0,747
10,181,congruent,present,pen,50_T_Pen.jpg,1,1,663
10,182,noPic,absent,fles,blank.jpg,0,1,683
10,183,incongruent,present,pen,52_T_Bonbon.jpg,1,1,659
10,184,noPic,absent,hark,blank.jpg,0,1,663
10,185,congruent,present,vlinder,28_T_Butterfly.jpg,0,0,670
10,186,incongruent,present,kraan,51_Control.jpg,1,1,582
10,187,congruent,present,ball,4_T_Ball.jpg,1,1,664
10,188,noPic,absent,zweep,blank.jpg,0,1,730
10,189,congruent,present,hersens,30_S_Brain.jpg,1,1,645
10,190,noPic,absent,zweep,blank.jpg,0,1,744
10,191,congruent,present,vlinder,28_T_Butterfly.jpg,1,1,921
10,192,incongruent,present,spuitje,32_T_Hat.jpg,0,0,795
10,193,congruent,present,spuitje,49_T_Injection.jpg,0,0,910
10,194,noPic,absent,bonbon,blank.jpg,0,1,892
10,195,noPic,absent,kraan,blank.jpg,0,1,851
10,196,noPic,absent,kussen,blank.jpg,0,1,898
10,197,incongruent,present,kussen,28_T_Butterfly.jpg,1,1,731
10,198,noPic,absent,hoed,blank.jpg,0,1,823
10,199,congruent,present,fluit,36_T_Flute.jpg,0,0,710
10,200,noPic,absent,hark,blank.jpg,0,1,736
10,201,noPic,absent,zweep,blank.jpg,0,1,804
10,202,noPic,absent,kraan,blank.jpg,0,1,823
10,203,noPic,absent,palm,blank.jpg,0,1,638
10,204,incongruent,present,hersens,28_T_Butterfly.jpg,1,1,843
10,205,noPic,absent,fles,blank.jpg,0,1,871
10,206,congruent,present,raket,17_T_Rocket.jpg,0,0,799
10,207,incongruent,present,bonbon,32_T_Hat.jpg,0,0,957
10,208,noPic,absent,fluit,blank.jpg,0,1,848
10,209,incongruent,present,hersens,29_T_Whip.jpg,0,0,691
10,210,noPic,absent,hersens,blank.jpg,0,1,689
10,211,congruent,present,fluit,36_T_Flute.jpg,0,0,762
10,212,incongruent,present,palm,38_T_Hark.jpg,1,1,715
10,213,incongruent,present,kraan,38_T_Hark.jpg,0,0,811
10,214,incongruent,present,zweep,8_T_Bottle.jpg,0,0,791
10,215,noPic,absent,ball,blank.jpg,1,0,731
10,216,noPic,absent,hoed,blank.jpg,0,1,980
10,217,noPic,absent,hersens,blank.jpg,0,1,845
10,218,noPic,absent,hoed,blank.jpg,0,1,721
10,219,congruent,present,hersens,30_S_Brain.jpg,1,1,671
10,220,incongruent,present,fles,12_T_Cushion.jpg,0,0,784
10,221,congruent,present,palm,51_Control.jpg,1,1,557
10,222,incongruent,present,hark,39_T_Crane.jpg,0,0,698
10,223,incongruent,present,raket,1_T_Banaan.jpg,0,0,790
10,224,incongruent,present,bonbon,36_T_Flute.jpg,0,0,809
10,225,noPic,absent,fluit,blank.jpg,0,1,675
10,226,noPic,absent,hark,blank.jpg,0,1,664
10,227,congruent,present,banaan,1_T_Banaan.jpg,0,0,674
10,228,noPic,absent,zweep,blank.jpg,0,1,752
10,229,noPic,absent,palm,blank.jpg,0,1,744
10,230,incongruent,present,raket,12_T_Cushion.jpg,0,0,886
10,231,congruent,present,hoed,32_T_Hat.jpg,1,1,691
10,232,noPic,absent,banaan,blank.jpg,0,1,705
10,233,congruent,present,fles,8_T_Bottle.jpg,0,0,605
10,234,incongruent,present,banaan,29_T_Whip.jpg,0,0,620
10,235,noPic,absent,spuitje,blank.jpg,0,1,708
10,236,noPic,absent,hersens,blank.jpg,0,1,864
10,237,noPic,absent,hark,blank.jpg,0,1,948
10,238,noPic,absent,hoed,blank.jpg,0,1,734
10,239,noPic,absent,palm,blank.jpg,0,1,696
10,240,congruent,present,kraan,39_T_Crane.jpg,1,1,950
10,241,noPic,absent,zweep,blank.jpg,0,1,1019
10,242,noPic,absent,raket,blank.jpg,0,1,783
10,243,congruent,present,banaan,1_T_Banaan.jpg,0,0,774
10,244,noPic,absent,bonbon,blank.jpg,0,1,789
10,245,congruent,present,fles,8_T_Bottle.jpg,0,0,739
10,246,congruent,present,bonbon,52_T_Bonbon.jpg,1,1,703
10,247,noPic,absent,vlinder,blank.jpg,0,1,709
10,248,noPic,absent,palm,blank.jpg,0,1,853
10,249,noPic,absent,banaan,blank.jpg,0,1,778
10,250,incongruent,present,palm,50_T_Pen.jpg,0,0,588
10,251,incongruent,present,bonbon,51_Control.jpg,1,1,686
10,252,noPic,absent,raket,blank.jpg,0,1,733
10,253,congruent,present,kraan,39_T_Crane.jpg,1,1,660
10,254,incongruent,present,zweep,4_T_Ball.jpg,0,0,693
10,255,congruent,present,bonbon,52_T_Bonbon.jpg,1,1,796
10,256,noPic,absent,hoed,blank.jpg,0,1,692
11,1,congruent,present,kussen,12_T_Cushion.jpg,0,0,858
11,2,congruent,present,hoed,32_T_Hat.jpg,0,0,979
11,3,incongruent,present,fluit,32_T_Hat.jpg,0,0,1151
11,4,incongruent,present,zweep,1_T_Banaan.jpg,1,1,785
11,5,incongruent,present,raket,12_T_Cushion.jpg,0,0,686
11,6,noPic,absent,zweep,blank.jpg,0,1,738
11,7,congruent,present,palm,51_Control.jpg,0,0,915
11,8,incongruent,present,fles,30_S_Brain.jpg,1,1,1067
11,9,congruent,present,raket,17_T_Rocket.jpg,0,0,1013
11,10,noPic,absent,palm,blank.jpg,0,1,1321
11,11,noPic,absent,spuitje,blank.jpg,1,0,1255
11,12,congruent,present,fles,8_T_Bottle.jpg,0,0,1095
11,13,noPic,absent,zweep,blank.jpg,0,1,1529
11,14,incongruent,present,pen,52_T_Bonbon.jpg,1,1,1351
11,15,incongruent,present,ball,8_T_Bottle.jpg,0,0,797
11,16,noPic,absent,ball,blank.jpg,0,1,973
11,17,noPic,absent,zweep,blank.jpg,1,0,717
11,18,incongruent,present,fluit,51_Control.jpg,0,0,929
11,19,noPic,absent,bonbon,blank.jpg,0,1,863
11,20,noPic,absent,hersens,blank.jpg,1,0,753
11,21,noPic,absent,vlinder,blank.jpg,0,1,893
11,22,incongruent,present,vlinder,29_T_Whip.jpg,0,0,948
11,23,noPic,absent,bonbon,blank.jpg,0,1,992
11,24,incongruent,present,palm,52_T_Bonbon.jpg,1,1,1661
11,25,noPic,absent,hark,blank.jpg,1,0,1148
11,26,congruent,present,vlinder,28_T_Butterfly.jpg,1,1,848
11,27,congruent,present,hark,38_T_Hark.jpg,0,0,881
11,28,incongruent,present,hark,39_T_Crane.jpg,0,0,915
11,29,incongruent,present,hersens,28_T_Butterfly.jpg,1,1,827
11,30,incongruent,present,banaan,29_T_Whip.jpg,0,0,904
11,31,noPic,absent,vlinder,blank.jpg,0,1,1260
11,32,congruent,present,vlinder,28_T_Butterfly.jpg,0,0,1459
11,33,congruent,present,hark,38_T_Hark.jpg,1,1,860
11,34,noPic,absent,kussen,blank.jpg,0,1,698
11,35,congruent,present,hark,38_T_Hark.jpg,0,0,782
11,36,incongruent,present,hoed,39_T_Crane.jpg,0,0,1079
11,37,noPic,absent,vlinder,blank.jpg,0,1,1457
11,38,noPic,absent,raket,blank.jpg,0,1,1637
11,39,noPic,absent,raket,blank.jpg,0,1,1275
11,40,congruent,present,bonbon,52_T_Bonbon.jpg,0,0,968
11,41,incongruent,present,banaan,28_T_Butterfly.jpg,1,1,1168
11,42,noPic,absent,raket,blank.jpg,1,0,1606
11,43,noPic,absent,hark,blank.jpg,0,1,746
11,44,incongruent,present,vlinder,30_S_Brain.jpg,1,1,1502
11,45,congruent,present,zweep,29_T_Whip.jpg,1,1,1071
11,46,incongruent,present,bonbon,32_T_Hat.jpg,0,0,1124
11,47,noPic,absent,spuitje,blank.jpg,0,1,810
11,48,incongruent,present,kussen,28_T_Butterfly.jpg,0,0,870
11,49,noPic,absent,fluit,blank.jpg,0,1,911
11,50,noPic,absent,ball,blank.jpg,0,1,856
11,51,congruent,present,spuitje,49_T_Injection.jpg,0,0,1238
11,52,noPic,absent,vlinder,blank.jpg,1,0,1374
11,53,incongruent,present,spuitje,38_T_Hark.jpg,1,1,1170
11,54,noPic,absent,raket,blank.jpg,0,1,863
11,55,congruent,present,pen,50_T_Pen.jpg,0,0,771
11,56,noPic,absent,hark,blank.jpg,0,1,703
11,57,congruent,present,ball,4_T_Ball.jpg,1,1,778
11,58,noPic,absent,hersens,blank.jpg,0,1,850
11,59,noPic,absent,hoed,blank.jpg,0,1,767
11,60,incongruent,present,spuitje,39_T_Crane.jpg,0,0,718
11,61,congruent,present,kraan,39_T_Crane.jpg,1,1,1140
11,62,noPic,absent,kraan,blank.jpg,0,1,691
11,63,noPic,absent,raket,blank.jpg,0,1,778
11,64,noPic,absent,bonbon,blank.jpg,0,1,791
11,65,congruent,present,palm,51_Control.jpg,1,1,630
11,66,noPic,absent,banaan,blank.jpg,0,1,725
11,67,incongruent,present,fles,4_T_Ball.jpg,0,0,850
11,68,congruent,present,banaan,1_T_Banaan.jpg,1,1,751
11,69,noPic,absent,fles,blank.jpg,0,1,828
11,70,noPic,absent,hark,blank.jpg,0,1,748
11,71,congruent,present,hersens,30_S_Brain.jpg,1,1,616
11,72,incongruent,present,kraan,50_T_Pen.jpg,0,0,784
11,73,congruent,present,spuitje,49_T_Injection.jpg,1,1,877
11,74,noPic,absent,ball,blank.jpg,0,1,662
11,75,incongruent,present,hoed,49_T_Injection.jpg,0,0,497
11,76,noPic,absent,ball,blank.jpg,0,1,647
11,77,incongruent,present,zweep,4_T_Ball.jpg,1,1,650
11,78,noPic,absent,bonbon,blank.jpg,0,1,795
11,79,incongruent,present,palm,49_T_Injection.jpg,0,0,680
11,80,noPic,absent,kraan,blank.jpg,0,1,668
11,81,incongruent,present,kraan,51_Control.jpg,0,0,520
11,82,congruent,present,hoed,32_T_Hat.jpg,1,1,630
11,83,congruent,present,raket,17_T_Rocket.jpg,0,0,560
11,84,noPic,absent,banaan,blank.jpg,0,1,590
11,85,noPic,absent,spuitje,blank.jpg,0,1,615
11,86,noPic,absent,hark,blank.jpg,0,1,602
11,87,noPic,absent,vlinder,blank.jpg,0,1,624
11,88,noPic,absent,zweep,blank.jpg,0,1,752
11,89,congruent,present,pen,50_T_Pen.jpg,1,1,1803
11,90,noPic,absent,kussen,blank.jpg,0,1,622
11,91,incongruent,present,ball,1_T_Banaan.jpg,0,0,463
11,92,congruent,present,fluit,36_T_Flute.jpg,0,0,689
11,93,noPic,absent,bonbon,blank.jpg,1,0,671
11,94,noPic,absent,kraan,blank.jpg,0,1,592
11,95,noPic,absent,fluit,blank.jpg,0,1,820
11,96,noPic,absent,kraan,blank.jpg,0,1,603
11,97,noPic,absent,bonbon,blank.jpg,0,1,533
11,98,noPic,absent,hoed,blank.jpg,0,1,728
11,99,congruent,present,fluit,36_T_Flute.jpg,0,0,1630
11,100,noPic,absent,vlinder,blank.jpg,0,1,797
11,101,noPic,absent,kraan,blank.jpg,0,1,483
11,102,noPic,absent,kussen,blank.jpg,0,1,790
11,103,noPic,absent,hoed,blank.jpg,1,0,1005
11,104,congruent,present,hersens,30_S_Brain.jpg,1,1,963
11,105,congruent,present,bonbon,52_T_Bonbon.jpg,0,0,1377
11,106,congruent,present,kussen,12_T_Cushion.jpg,0,0,607
11,107,incongruent,present,bonbon,50_T_Pen.jpg,0,0,675
11,108,congruent,present,spuitje,49_T_Injection.jpg,0,0,822
11,109,congruent,present,zweep,29_T_Whip.jpg,0,0,762
11,110,noPic,absent,fles,blank.jpg,0,1,699
11,111,incongruent,present,pen,49_T_Injection.jpg,1,1,805
11,112,congruent,present,banaan,1_T_Banaan.jpg,0,0,586
11,113,noPic,absent,kussen,blank.jpg,0,1,648
11,114,incongruent,present,kussen,17_T_Rocket.jpg,0,0,581
11,115,noPic,absent,palm,blank.jpg,0,1,473
11,116,congruent,present,vlinder,28_T_Butterfly.jpg,1,1,739
11,117,noPic,absent,fluit,blank.jpg,0,1,644
11,118,noPic,absent,hoed,blank.jpg,0,1,1836
11,119,congruent,present,zweep,29_T_Whip.jpg,0,0,1118
11,120,noPic,absent,ball,blank.jpg,0,1,695
11,121,incongruent,present,palm,38_T_Hark.jpg,1,1,551
11,122,noPic,absent,pen,blank.jpg,0,1,539
11,123,noPic,absent,fles,blank.jpg,0,1,633
11,124,congruent,present,zweep,29_T_Whip.jpg,0,0,689
11,125,congruent,present,banaan,1_T_Banaan.jpg,1,1,789
11,126,congruent,present,spuitje,49_T_Injection.jpg,0,0,901
11,127,congruent,present,fluit,36_T_Flute.jpg,0,0,755
11,128,noPic,absent,banaan,blank.jpg,0,1,825
11,129,noPic,absent,raket,blank.jpg,0,1,706
11,130,congruent,present,ball,4_T_Ball.jpg,0,0,738
11,131,noPic,absent,zweep,blank.jpg,0,1,1433
11,132,incongruent,present,bonbon,36_T_Flute.jpg,0,0,886
11,133,incongruent,present,vlinder,8_T_Bottle.jpg,0,0,1231
11,134,noPic,absent,pen,blank.jpg,0,1,1948
11,135,noPic,absent,hark,blank.jpg,0,1,1177
11,136,incongruent,present,palm,50_T_Pen.jpg,0,0,845
11,137,noPic,absent,hoed,blank.jpg,0,1,890
11,138,congruent,present,palm,51_Control.jpg,0,0,1292
11,139,noPic,absent,bonbon,blank.jpg,0,1,1554
11,140,noPic,absent,fluit,blank.jpg,0,1,759
11,141,congruent,present,bonbon,52_T_Bonbon.jpg,1,1,726
11,142,noPic,absent,fles,blank.jpg,0,1,963
11,143,noPic,absent,bonbon,blank.jpg,0,1,951
11,144,noPic,absent,vlinder,blank.jpg,0,1,681
11,145,noPic,absent,kraan,blank.jpg,0,1,1204
11,146,noPic,absent,fluit,blank.jpg,0,1,800
11,147,noPic,absent,spuitje,blank.jpg,0,1,998
11,148,congruent,present,banaan,1_T_Banaan.jpg,0,0,598
11,149,congruent,present,hark,38_T_Hark.jpg,0,0,639
11,150,incongruent,present,hoed,36_T_Flute.jpg,0,0,651
11,151,congruent,present,fles,8_T_Bottle.jpg,1,1,865
11,152,incongruent,present,zweep,8_T_Bottle.jpg,0,0,704
11,153,noPic,absent,raket,blank.jpg,0,1,663
11,154,incongruent,present,kraan,38_T_Hark.jpg,0,0,644
11,155,noPic,absent,kraan,blank.jpg,0,1,976
11,156,incongruent,present,ball,12_T_Cushion.jpg,0,0,522
11,157,incongruent,present,hersens,17_T_Rocket.jpg,0,0,528
11,158,noPic,absent,hersens,blank.jpg,1,0,559
11,159,incongruent,present,raket,4_T_Ball.jpg,1,1,854
11,160,noPic,absent,raket,blank.jpg,0,1,698
11,161,congruent,present,fles,8_T_Bottle.jpg,0,0,666
11,162,congruent,present,raket,17_T_Rocket.jpg,0,0,736
11,163,congruent,present,hersens,30_S_Brain.jpg,0,0,723
11,164,congruent,present,ball,4_T_Ball.jpg,1,1,544
11,165,congruent,present,hersens,30_S_Brain.jpg,1,1,622
11,166,noPic,absent,kussen,blank.jpg,0,1,595
11,167,noPic,absent,kussen,blank.jpg,0,1,556
11,168,noPic,absent,hoed,blank.jpg,0,1,677
11,169,noPic,absent,raket,blank.jpg,1,0,1014
11,170,noPic,absent,palm,blank.jpg,0,1,1743
11,171,noPic,absent,pen,blank.jpg,0,1,607
11,172,incongruent,present,hark,32_T_Hat.jpg,0,0,668
11,173,noPic,absent,hersens,blank.jpg,0,1,572
11,174,incongruent,present,zweep,30_S_Brain.jpg,0,0,581
11,175,congruent,present,kussen,12_T_Cushion.jpg,0,0,532
11,176,noPic,absent,vlinder,blank.jpg,0,1,555
11,177,incongruent,present,raket,8_T_Bottle.jpg,1,1,643
11,178,noPic,absent,hersens,blank.jpg,0,1,633
11,179,congruent,present,kraan,39_T_Crane.jpg,0,0,714
11,180,noPic,absent,kraan,blank.jpg,0,1,601
11,181,noPic,absent,hersens,blank.jpg,0,1,690
11,182,noPic,absent,spuitje,blank.jpg,1,0,653
11,183,noPic,absent,hark,blank.jpg,0,1,1832
11,184,incongruent,present,pen,51_Control.jpg,0,0,1027
11,185,noPic,absent,spuitje,blank.jpg,0,1,864
11,186,noPic,absent,banaan,blank.jpg,0,1,1621
11,187,noPic,absent,banaan,blank.jpg,0,1,648
11,188,incongruent,present,hark,49_T_Injection.jpg,0,0,794
11,189,noPic,absent,hoed,blank.jpg,0,1,642
11,190,noPic,absent,ball,blank.jpg,0,1,627
11,191,congruent,present,pen,50_T_Pen.jpg,0,0,499
11,192,noPic,absent,ball,blank.jpg,0,1,882
11,193,congruent,present,vlinder,28_T_Butterfly.jpg,0,0,629
11,194,congruent,present,kraan,39_T_Crane.jpg,0,0,616
11,195,incongruent,present,hersens,12_T_Cushion.jpg,0,0,888
11,196,noPic,absent,banaan,blank.jpg,0,1,716
11,197,congruent,present,hoed,32_T_Hat.jpg,0,0,686
11,198,congruent,present,fluit,36_T_Flute.jpg,0,0,1255
11,199,incongruent,present,hersens,29_T_Whip.jpg,1,1,1103
11,200,incongruent,present,hoed,38_T_Hark.jpg,1,1,1015
11,201,incongruent,present,fluit,52_T_Bonbon.jpg,1,1,1005
11,202,congruent,present,hoed,32_T_Hat.jpg,0,0,501
11,203,noPic,absent,palm,blank.jpg,0,1,703
11,204,noPic,absent,hoed,blank.jpg,0,1,827
11,205,incongruent,present,fluit,50_T_Pen.jpg,0,0,837
11,206,incongruent,present,pen,39_T_Crane.jpg,0,0,751
11,207,noPic,absent,zweep,blank.jpg,0,1,734
11,208,noPic,absent,pen,blank.jpg,0,1,741
11,209,noPic,absent,banaan,blank.jpg,0,1,996
11,210,noPic,absent,zweep,blank.jpg,0,1,804
11,211,noPic,absent,kussen,blank.jpg,0,1,702
11,212,noPic,absent,palm,blank.jpg,0,1,591
11,213,noPic,absent,fluit,blank.jpg,0,1,823
11,214,noPic,absent,fluit,blank.jpg,0,1,802
11,215,incongruent,present,spuitje,36_T_Flute.jpg,0,0,788
11,216,incongruent,present,kussen,29_T_Whip.jpg,0,0,756
11,217,noPic,absent,fluit,blank.jpg,0,1,841
11,218,noPic,absent,hersens,blank.jpg,0,1,680
11,219,incongruent,present,kraan,52_T_Bonbon.jpg,0,0,727
11,220,incongruent,present,hark,36_T_Flute.jpg,0,0,933
11,221,congruent,present,raket,17_T_Rocket.jpg,0,0,786
11,222,noPic,absent,kussen,blank.jpg,0,1,755
11,223,congruent,present,vlinder,28_T_Butterfly.jpg,0,0,1534
11,224,noPic,absent,pen,blank.jpg,0,1,985
11,225,congruent,present,bonbon,52_T_Bonbon.jpg,1,1,684
11,226,noPic,absent,fles,blank.jpg,1,0,685
11,227,noPic,absent,spuitje,blank.jpg,0,1,605
11,228,incongruent,present,raket,1_T_Banaan.jpg,0,0,715
11,229,noPic,absent,pen,blank.jpg,1,0,617
11,230,congruent,present,fles,8_T_Bottle.jpg,0,0,686
11,231,incongruent,present,kussen,30_S_Brain.jpg,0,0,796
11,232,noPic,absent,pen,blank.jpg,0,1,1322
11,233,noPic,absent,hark,blank.jpg,1,0,733
11,234,incongruent,present,bonbon,51_Control.jpg,0,0,644
11,235,noPic,absent,palm,blank.jpg,0,1,706
11,236,congruent,present,kussen,12_T_Cushion.jpg,0,0,688
11,237,incongruent,present,banaan,4_T_Ball.jpg,1,1,753
11,238,congruent,present,ball,4_T_Ball.jpg,1,1,1061
11,239,congruent,present,kraan,39_T_Crane.jpg,0,0,610
11,240,noPic,absent,fles,blank.jpg,0,1,781
11,241,noPic,absent,zweep,blank.jpg,0,1,733
11,242,incongruent,present,fles,12_T_Cushion.jpg,0,0,954
11,243,incongruent,present,fles,1_T_Banaan.jpg,0,0,688
11,244,noPic,absent,spuitje,blank.jpg,0,1,1427
11,245,noPic,absent,pen,blank.jpg,0,1,626
11,246,incongruent,present,spuitje,32_T_Hat.jpg,1,1,949
11,247,noPic,absent,palm,blank.jpg,0,1,695
11,248,noPic,absent,hersens,blank.jpg,0,1,713
11,249,incongruent,present,ball,17_T_Rocket.jpg,0,0,876
11,250,noPic,absent,fles,blank.jpg,0,1,904
11,251,congruent,present,raket,17_T_Rocket.jpg,1,1,1836
11,252,noPic,absent,ball,blank.jpg,0,1,1752
11,253,noPic,absent,palm,blank.jpg,0,1,843
11,254,noPic,absent,fles,blank.jpg,0,1,1440
11,255,congruent,present,pen,50_T_Pen.jpg,0,0,738
11,256,congruent,present,palm,51_Control.jpg,0,0,1001
13,1,noPic,absent,raket,blank.jpg,0,1,1151
13,2,incongruent,present,ball,12_T_Cushion.jpg,0,0,928
13,3,congruent,present,spuitje,49_T_Injection.jpg,0,0,1047
13,4,noPic,absent,zweep,blank.jpg,0,1,914
13,5,noPic,absent,hersens,blank.jpg,0,1,889
13,6,noPic,absent,bonbon,blank.jpg,0,1,933
13,7,noPic,absent,hersens,blank.jpg,0,1,974
13,8,congruent,present,raket,17_T_Rocket.jpg,1,1,764
13,9,noPic,absent,pen,blank.jpg,0,1,1108
13,10,incongruent,present,hark,49_T_Injection.jpg,0,0,828
13,11,noPic,absent,banaan,blank.jpg,1,0,939
13,12,congruent,present,kraan,39_T_Crane.jpg,1,1,1286
13,13,noPic,absent,hersens,blank.jpg,0,1,890
13,14,incongruent,present,hoed,38_T_Hark.jpg,0,0,727
13,15,congruent,present,fles,8_T_Bottle.jpg,1,1,764
13,16,incongruent,present,fles,1_T_Banaan.jpg,1,1,848
13,17,incongruent,present,hersens,12_T_Cushion.jpg,0,0,1160
13,18,congruent,present,hoed,32_T_Hat.jpg,0,0,1275
13,19,noPic,absent,kraan,blank.jpg,1,0,721
13,20,incongruent,present,banaan,28_T_Butterfly.jpg,1,1,754
13,21,noPic,absent,hersens,blank.jpg,1,0,745
13,22,congruent,present,hark,38_T_Hark.jpg,1,1,884
13,23,noPic,absent,banaan,blank.jpg,0,1,1174
13,24,noPic,absent,hark,blank.jpg,1,0,1262
13,25,incongruent,present,bonbon,50_T_Pen.jpg,0,0,1739
13,26,congruent,present,spuitje,49_T_Injection.jpg,1,1,909
13,27,congruent,present,ball,4_T_Ball.jpg,1,1,654
13,28,noPic,absent,vlinder,blank.jpg,1,0,900
13,29,noPic,absent,spuitje,blank.jpg,0,1,1241
13,30,noPic,absent,fluit,blank.jpg,1,0,952
13,31,incongruent,present,ball,8_T_Bottle.jpg,1,1,797
13,32,noPic,absent,zweep,blank.jpg,0,1,772
13,33,noPic,absent,palm,blank.jpg,0,1,1145
13,34,incongruent,present,pen,49_T_Injection.jpg,0,0,764
13,35,congruent,present,fluit,36_T_Flute.jpg,0,0,965
13,36,congruent,present,hark,38_T_Hark.jpg,0,0,1148
13,37,noPic,absent,kraan,blank.jpg,0,1,845
13,38,noPic,absent,fles,blank.jpg,1,0,592
13,39,noPic,absent,ball,blank.jpg,1,0,709
13,40,incongruent,present,hark,39_T_Crane.jpg,1,1,755
13,41,noPic,absent,hersens,blank.jpg,0,1,1096
13,42,noPic,absent,kraan,blank.jpg,1,0,1019
13,43,noPic,absent,fluit,blank.jpg,1,0,1146
13,44,noPic,absent,kraan,blank.jpg,0,1,828
13,45,noPic,absent,hark,blank.jpg,0,1,844
13,46,congruent,present,hoed,32_T_Hat.jpg,1,1,528
13,47,noPic,absent,raket,blank.jpg,0,1,1029
13,48,noPic,absent,vlinder,blank.jpg,1,0,945
13,49,noPic,absent,kraan,blank.jpg,0,1,864
13,50,incongruent,present,raket,4_T_Ball.jpg,0,0,1047
13,51,incongruent,present,fluit,50_T_Pen.jpg,1,1,970
13,52,incongruent,present,spuitje,32_T_Hat.jpg,1,1,1249
13,53,congruent,present,kussen,12_T_Cushion.jpg,1,1,1141
13,54,congruent,present,hark,38_T_Hark.jpg,1,1,1291
13,55,noPic,absent,fluit,blank.jpg,1,0,756
13,56,congruent,present,banaan,1_T_Banaan.jpg,1,1,734
13,57,congruent,present,zweep,29_T_Whip.jpg,0,0,581
13,58,noPic,absent,fluit,blank.jpg,0,1,974
13,59,noPic,absent,raket,blank.jpg,1,0,825
13,60,noPic,absent,hark,blank.jpg,0,1,998
13,61,noPic,absent,hark,blank.jpg,1,0,1205
13,62,incongruent,present,fles,12_T_Cushion.jpg,1,1,1038
13,63,incongruent,present,zweep,8_T_Bottle.jpg,1,1,904
13,64,noPic,absent,bonbon,blank.jpg,1,0,1381
13,65,noPic,absent,raket,blank.jpg,1,0,658
13,66,noPic,absent,bonbon,blank.jpg,0,1,1067
13,67,congruent,present,spuitje,49_T_Injection.jpg,0,0,942
13,68,congruent,present,pen,50_T_Pen.jpg,0,0,1339
13,69,noPic,absent,spuitje,blank.jpg,0,1,1418
13,70,congruent,present,zweep,29_T_Whip.jpg,1,1,911
13,71,incongruent,present,palm,38_T_Hark.jpg,1,1,1055
13,72,incongruent,present,fles,4_T_Ball.jpg,0,0,1014
13,73,noPic,absent,hoed,blank.jpg,0,1,1160
13,74,congruent,present,palm,51_Control.jpg,1,1,671
13,75,noPic,absent,hoed,blank.jpg,1,0,686
13,76,congruent,present,banaan,1_T_Banaan.jpg,1,1,780
13,77,noPic,absent,raket,blank.jpg,1,0,744
13,78,noPic,absent,vlinder,blank.jpg,1,0,744
13,79,congruent,present,raket,17_T_Rocket.jpg,1,1,700
13,80,incongruent,present,banaan,29_T_Whip.jpg,1,1,730
13,81,noPic,absent,ball,blank.jpg,1,0,812
13,82,incongruent,present,zweep,4_T_Ball.jpg,1,1,836
13,83,noPic,absent,fles,blank.jpg,1,0,644
13,84,noPic,absent,bonbon,blank.jpg,1,0,537
13,85,incongruent,present,hoed,39_T_Crane.jpg,1,1,640
13,86,congruent,present,banaan,1_T_Banaan.jpg,1,1,499
13,87,noPic,absent,vlinder,blank.jpg,1,0,919
13,88,noPic,absent,ball,blank.jpg,1,0,660
13,89,noPic,absent,kussen,blank.jpg,0,1,2159
13,90,congruent,present,ball,4_T_Ball.jpg,0,0,965
13,91,noPic,absent,fles,blank.jpg,0,1,770
13,92,noPic,absent,raket,blank.jpg,1,0,811
13,93,noPic,absent,zweep,blank.jpg,1,0,689
13,94,congruent,present,fles,8_T_Bottle.jpg,1,1,590
13,95,incongruent,present,vlinder,8_T_Bottle.jpg,1,1,668
13,96,noPic,absent,spuitje,blank.jpg,1,0,801
13,97,noPic,absent,zweep,blank.jpg,0,1,910
13,98,noPic,absent,hark,blank.jpg,1,0,873
13,99,congruent,present,bonbon,52_T_Bonbon.jpg,1,1,923
13,100,congruent,present,palm,51_Control.jpg,1,1,834
13,101,noPic,absent,hark,blank.jpg,1,0,932
13,102,congruent,present,hoed,32_T_Hat.jpg,1,1,1022
13,103,noPic,absent,vlinder,blank.jpg,1,0,956
13,104,incongruent,present,bonbon,32_T_Hat.jpg,1,1,757
13,105,incongruent,present,vlinder,30_S_Brain.jpg,1,1,742
13,106,noPic,absent,banaan,blank.jpg,1,0,942
13,107,noPic,absent,hersens,blank.jpg,1,0,732
13,108,noPic,absent,ball,blank.jpg,1,0,708
13,109,noPic,absent,fles,blank.jpg,1,0,672
13,110,incongruent,present,ball,1_T_Banaan.jpg,1,1,962
13,111,congruent,present,hersens,30_S_Brain.jpg,1,1,795
13,112,incongruent,present,pen,52_T_Bonbon.jpg,1,1,1097
13,113,noPic,absent,pen,blank.jpg,1,0,860
13,114,congruent,present,zweep,29_T_Whip.jpg,1,1,761
13,115,congruent,present,raket,17_T_Rocket.jpg,1,1,1347
13,116,noPic,absent,raket,blank.jpg,1,0,1219
13,117,incongruent,present,raket,12_T_Cushion.jpg,1,1,688
13,118,noPic,absent,zweep,blank.jpg,1,0,751
13,119,incongruent,present,kussen,30_S_Brain.jpg,1,1,970
13,120,congruent,present,vlinder,28_T_Butterfly.jpg,1,1,802
13,121,congruent,present,kussen,12_T_Cushion.jpg,1,1,842
13,122,noPic,absent,ball,blank.jpg,1,0,1096
13,123,congruent,present,vlinder,28_T_Butterfly.jpg,1,1,1168
13,124,noPic,absent,vlinder,blank.jpg,1,0,902
13,125,incongruent,present,spuitje,36_T_Flute.jpg,0,0,1180
13,126,incongruent,present,hoed,49_T_Injection.jpg,1,1,711
13,127,incongruent,present,kussen,29_T_Whip.jpg,1,1,804
13,128,incongruent,present,fles,30_S_Brain.jpg,1,1,753
13,129,incongruent,present,bonbon,36_T_Flute.jpg,1,1,571
13,130,incongruent,present,hark,36_T_Flute.jpg,1,1,1552
13,131,noPic,absent,pen,blank.jpg,0,1,1158
13,132,noPic,absent,vlinder,blank.jpg,0,1,1030
13,133,congruent,present,kraan,39_T_Crane.jpg,1,1,824
13,134,noPic,absent,spuitje,blank.jpg,1,0,815
13,135,congruent,present,hoed,32_T_Hat.jpg,1,1,899
13,136,noPic,absent,kussen,blank.jpg,0,1,1732
13,137,incongruent,present,kussen,28_T_Butterfly.jpg,1,1,1523
13,138,noPic,absent,kussen,blank.jpg,1,0,1163
13,139,congruent,present,raket,17_T_Rocket.jpg,1,1,821
13,140,noPic,absent,spuitje,blank.jpg,0,1,1099
13,141,congruent,present,kraan,39_T_Crane.jpg,1,1,633
13,142,noPic,absent,banaan,blank.jpg,1,0,2072
13,143,noPic,absent,zweep,blank.jpg,0,1,992
13,144,incongruent,present,bonbon,51_Control.jpg,1,1,1315
13,145,congruent,present,kussen,12_T_Cushion.jpg,1,1,766
13,146,noPic,absent,kussen,blank.jpg,0,1,877
13,147,incongruent,present,hark,32_T_Hat.jpg,1,1,540
13,148,noPic,absent,palm,blank.jpg,1,0,927
13,149,incongruent,present,palm,50_T_Pen.jpg,1,1,764
13,150,congruent,present,hersens,30_S_Brain.jpg,1,1,1003
13,151,congruent,present,vlinder,28_T_Butterfly.jpg,1,1,1945
13,152,incongruent,present,fluit,32_T_Hat.jpg,1,1,1539
13,153,noPic,absent,pen,blank.jpg,0,1,1182
13,154,congruent,present,fluit,36_T_Flute.jpg,1,1,1109
13,155,noPic,absent,kussen,blank.jpg,1,0,1067
13,156,congruent,present,kussen,12_T_Cushion.jpg,1,1,917
13,157,congruent,present,fluit,36_T_Flute.jpg,1,1,1225
13,158,noPic,absent,ball,blank.jpg,1,0,835
13,159,noPic,absent,fluit,blank.jpg,0,1,1042
13,160,incongruent,present,spuitje,39_T_Crane.jpg,1,1,782
13,161,noPic,absent,kussen,blank.jpg,1,0,1126
13,162,noPic,absent,hark,blank.jpg,1,0,1111
13,163,congruent,present,fles,8_T_Bottle.jpg,0,0,990
13,164,incongruent,present,pen,51_Control.jpg,1,1,812
13,165,noPic,absent,ball,blank.jpg,1,0,939
13,166,noPic,absent,kussen,blank.jpg,1,0,855
13,167,incongruent,present,hoed,36_T_Flute.jpg,1,1,819
13,168,congruent,present,fles,8_T_Bottle.jpg,1,1,1154
13,169,incongruent,present,zweep,1_T_Banaan.jpg,1,1,794
13,170,incongruent,present,kussen,17_T_Rocket.jpg,1,1,783
13,171,incongruent,present,spuitje,38_T_Hark.jpg,1,1,886
13,172,incongruent,present,fluit,52_T_Bonbon.jpg,1,1,842
13,173,noPic,absent,bonbon,blank.jpg,0,1,1023
13,174,congruent,present,bonbon,52_T_Bonbon.jpg,1,1,944
13,175,noPic,absent,hoed,blank.jpg,1,0,1113
13,176,congruent,present,vlinder,28_T_Butterfly.jpg,1,1,1238
13,177,noPic,absent,spuitje,blank.jpg,0,1,1110
13,178,congruent,present,hersens,30_S_Brain.jpg,1,1,1030
13,179,noPic,absent,hark,blank.jpg,0,1,949
13,180,noPic,absent,fles,blank.jpg,0,1,939
13,181,noPic,absent,fles,blank.jpg,0,1,876
13,182,congruent,present,ball,4_T_Ball.jpg,1,1,618
13,183,congruent,present,bonbon,52_T_Bonbon.jpg,1,1,837
13,184,noPic,absent,hoed,blank.jpg,0,1,867
13,185,noPic,absent,hersens,blank.jpg,0,1,919
13,186,congruent,present,zweep,29_T_Whip.jpg,1,1,794
13,187,noPic,absent,spuitje,blank.jpg,0,1,733
13,188,incongruent,present,hersens,29_T_Whip.jpg,1,1,808
13,189,noPic,absent,raket,blank.jpg,1,0,1108
13,190,noPic,absent,palm,blank.jpg,0,1,1040
13,191,noPic,absent,banaan,blank.jpg,0,1,1016
13,192,noPic,absent,ball,blank.jpg,0,1,1250
13,193,noPic,absent,banaan,blank.jpg,0,1,882
13,194,noPic,absent,hoed,blank.jpg,0,1,1146
13,195,noPic,absent,raket,blank.jpg,0,1,1130
13,196,congruent,present,pen,50_T_Pen.jpg,1,1,999
13,197,noPic,absent,hoed,blank.jpg,0,1,1218
13,198,incongruent,present,hersens,28_T_Butterfly.jpg,1,1,1113
13,199,noPic,absent,pen,blank.jpg,0,1,850
13,200,congruent,present,hark,38_T_Hark.jpg,1,1,853
13,201,congruent,present,kraan,39_T_Crane.jpg,1,1,867
13,202,noPic,absent,fluit,blank.jpg,0,1,778
13,203,incongruent,present,kraan,52_T_Bonbon.jpg,1,1,824
13,204,incongruent,present,ball,17_T_Rocket.jpg,0,0,806
13,205,noPic,absent,hoed,blank.jpg,0,1,855
13,206,incongruent,present,vlinder,29_T_Whip.jpg,1,1,823
13,207,noPic,absent,kraan,blank.jpg,0,1,1050
13,208,noPic,absent,spuitje,blank.jpg,0,1,836
13,209,congruent,present,fluit,36_T_Flute.jpg,1,1,884
13,210,noPic,absent,palm,blank.jpg,0,1,734
13,211,noPic,absent,pen,blank.jpg,0,1,658
13,212,congruent,present,banaan,1_T_Banaan.jpg,1,1,699
13,213,noPic,absent,kraan,blank.jpg,0,1,868
13,214,noPic,absent,bonbon,blank.jpg,0,1,935
13,215,incongruent,present,raket,1_T_Banaan.jpg,1,1,818
13,216,noPic,absent,vlinder,blank.jpg,0,1,865
13,217,noPic,absent,hoed,blank.jpg,0,1,775
13,218,noPic,absent,fles,blank.jpg,0,1,645
13,219,noPic,absent,kraan,blank.jpg,0,1,791
13,220,incongruent,present,raket,8_T_Bottle.jpg,1,1,708
13,221,congruent,present,spuitje,49_T_Injection.jpg,1,1,910
13,222,incongruent,present,fluit,51_Control.jpg,1,1,831
13,223,incongruent,present,kraan,50_T_Pen.jpg,1,1,641
13,224,noPic,absent,fles,blank.jpg,0,1,717
13,225,noPic,absent,hersens,blank.jpg,0,1,682
13,226,noPic,absent,bonbon,blank.jpg,0,1,572
13,227,noPic,absent,kussen,blank.jpg,0,1,880
13,228,congruent,present,vlinder,28_T_Butterfly.jpg,1,1,629
13,229,noPic,absent,fluit,blank.jpg,0,1,832
13,230,noPic,absent,zweep,blank.jpg,0,1,913
13,231,congruent,present,palm,51_Control.jpg,1,1,728
13,232,noPic,absent,palm,blank.jpg,0,1,735
13,233,noPic,absent,palm,blank.jpg,0,1,633
13,234,noPic,absent,palm,blank.jpg,0,1,567
13,235,incongruent,present,hersens,17_T_Rocket.jpg,1,1,622
13,236,incongruent,present,palm,49_T_Injection.jpg,0,0,642
13,237,congruent,present,bonbon,52_T_Bonbon.jpg,1,1,498
13,238,congruent,present,hersens,30_S_Brain.jpg,1,1,573
13,239,noPic,absent,palm,blank.jpg,0,1,616
13,240,noPic,absent,zweep,blank.jpg,0,1,806
13,241,incongruent,present,pen,39_T_Crane.jpg,1,1,575
13,242,noPic,absent,banaan,blank.jpg,0,1,858
13,243,incongruent,present,kraan,38_T_Hark.jpg,0,0,746
13,244,noPic,absent,pen,blank.jpg,0,1,873
13,245,incongruent,present,banaan,4_T_Ball.jpg,1,1,760
13,246,incongruent,present,zweep,30_S_Brain.jpg,1,1,701
13,247,noPic,absent,pen,blank.jpg,0,1,915
13,248,congruent,present,pen,50_T_Pen.jpg,1,1,706
13,249,congruent,present,ball,4_T_Ball.jpg,1,1,749
13,250,incongruent,present,palm,52_T_Bonbon.jpg,1,1,813
13,251,incongruent,present,kraan,51_Control.jpg,1,1,698
13,252,congruent,present,pen,50_T_Pen.jpg,0,0,642
13,253,noPic,absent,bonbon,blank.jpg,0,1,668
13,254,congruent,present,raket,17_T_Rocket.jpg,1,1,845
13,255,congruent,present,palm,51_Control.jpg,1,1,704
13,256,noPic,absent,fluit,blank.jpg,0,1,673
14,1,incongruent,present,bonbon,36_T_Flute.jpg,0,0,1547
14,2,noPic,absent,kussen,blank.jpg,0,1,1258
14,3,congruent,present,vlinder,28_T_Butterfly.jpg,1,1,911
14,4,incongruent,present,kraan,38_T_Hark.jpg,0,0,960
14,5,incongruent,present,kussen,28_T_Butterfly.jpg,1,1,647
14,6,noPic,absent,fluit,blank.jpg,0,1,638
14,7,congruent,present,banaan,1_T_Banaan.jpg,1,1,494
14,8,noPic,absent,fles,blank.jpg,0,1,633
14,9,noPic,absent,ball,blank.jpg,1,0,908
14,10,noPic,absent,palm,blank.jpg,0,1,637
14,11,noPic,absent,palm,blank.jpg,0,1,511
14,12,noPic,absent,hersens,blank.jpg,0,1,757
14,13,incongruent,present,spuitje,36_T_Flute.jpg,0,0,712
14,14,noPic,absent,fles,blank.jpg,0,1,795
14,15,noPic,absent,vlinder,blank.jpg,0,1,753
14,16,incongruent,present,hark,32_T_Hat.jpg,0,0,447
14,17,noPic,absent,bonbon,blank.jpg,1,0,950
14,18,congruent,present,bonbon,52_T_Bonbon.jpg,1,1,708
14,19,incongruent,present,kraan,51_Control.jpg,1,1,707
14,20,noPic,absent,hark,blank.jpg,0,1,806
14,21,incongruent,present,hersens,29_T_Whip.jpg,0,0,756
14,22,incongruent,present,spuitje,39_T_Crane.jpg,1,1,686
14,23,noPic,absent,raket,blank.jpg,1,0,716
14,24,noPic,absent,palm,blank.jpg,1,0,808
14,25,noPic,absent,vlinder,blank.jpg,1,0,824
14,26,incongruent,present,fles,4_T_Ball.jpg,1,1,683
14,27,noPic,absent,palm,blank.jpg,0,1,1246
14,28,noPic,absent,hark,blank.jpg,1,0,693
14,29,incongruent,present,pen,51_Control.jpg,1,1,643
14,30,noPic,absent,hersens,blank.jpg,0,1,738
14,31,congruent,present,hark,38_T_Hark.jpg,1,1,726
14,32,incongruent,present,ball,8_T_Bottle.jpg,1,1,673
14,33,noPic,absent,kussen,blank.jpg,1,0,744
14,34,congruent,present,bonbon,52_T_Bonbon.jpg,1,1,669
14,35,noPic,absent,palm,blank.jpg,1,0,671
14,36,noPic,absent,vlinder,blank.jpg,1,0,685
14,37,noPic,absent,fluit,blank.jpg,1,0,751
14,38,congruent,present,vlinder,28_T_Butterfly.jpg,1,1,512
14,39,noPic,absent,kraan,blank.jpg,1,0,645
14,40,noPic,absent,hark,blank.jpg,1,0,654
14,41,congruent,present,raket,17_T_Rocket.jpg,1,1,716
14,42,incongruent,present,ball,1_T_Banaan.jpg,1,1,822
14,43,noPic,absent,spuitje,blank.jpg,0,1,863
14,44,congruent,present,raket,17_T_Rocket.jpg,0,0,700
14,45,noPic,absent,bonbon,blank.jpg,1,0,613
14,46,noPic,absent,kraan,blank.jpg,1,0,727
14,47,incongruent,present,raket,1_T_Banaan.jpg,1,1,641
14,48,noPic,absent,palm,blank.jpg,1,0,765
14,49,noPic,absent,hersens,blank.jpg,1,0,872
14,50,congruent,present,hersens,30_S_Brain.jpg,1,1,748
14,51,noPic,absent,kussen,blank.jpg,1,0,1154
14,52,congruent,present,pen,50_T_Pen.jpg,0,0,728
14,53,congruent,present,bonbon,52_T_Bonbon.jpg,1,1,683
14,54,noPic,absent,pen,blank.jpg,1,0,567
14,55,congruent,present,kraan,39_T_Crane.jpg,1,1,883
14,56,congruent,present,palm,51_Control.jpg,1,1,827
14,57,noPic,absent,kraan,blank.jpg,1,0,872
14,58,incongruent,present,hersens,28_T_Butterfly.jpg,1,1,800
14,59,incongruent,present,ball,12_T_Cushion.jpg,1,1,731
14,60,incongruent,present,fles,1_T_Banaan.jpg,1,1,679
14,61,noPic,absent,ball,blank.jpg,1,0,715
14,62,congruent,present,hark,38_T_Hark.jpg,1,1,534
14,63,noPic,absent,fles,blank.jpg,1,0,663
14,64,noPic,absent,ball,blank.jpg,1,0,744
14,65,noPic,absent,fluit,blank.jpg,1,0,570
14,66,noPic,absent,fles,blank.jpg,1,0,718
14,67,congruent,present,raket,17_T_Rocket.jpg,1,1,566
14,68,noPic,absent,hoed,blank.jpg,1,0,584
14,69,congruent,present,fluit,36_T_Flute.jpg,1,1,571
14,70,noPic,absent,hersens,blank.jpg,1,0,622
14,71,incongruent,present,banaan,29_T_Whip.jpg,0,0,547
14,72,incongruent,present,raket,8_T_Bottle.jpg,1,1,454
14,73,noPic,absent,vlinder,blank.jpg,1,0,526
14,74,noPic,absent,hoed,blank.jpg,0,1,567
14,75,noPic,absent,hoed,blank.jpg,0,1,717
14,76,congruent,present,kussen,12_T_Cushion.jpg,1,1,484
14,77,incongruent,present,hark,36_T_Flute.jpg,1,1,492
14,78,noPic,absent,spuitje,blank.jpg,1,0,722
14,79,noPic,absent,hersens,blank.jpg,0,1,772
14,80,congruent,present,kraan,39_T_Crane.jpg,1,1,757
14,81,noPic,absent,raket,blank.jpg,1,0,764
14,82,congruent,present,zweep,29_T_Whip.jpg,1,1,740
14,83,congruent,present,vlinder,28_T_Butterfly.jpg,1,1,706
14,84,noPic,absent,zweep,blank.jpg,0,1,809
14,85,congruent,present,spuitje,49_T_Injection.jpg,1,1,702
14,86,noPic,absent,kraan,blank.jpg,0,1,748
14,87,incongruent,present,banaan,4_T_Ball.jpg,1,1,707
14,88,noPic,absent,raket,blank.jpg,0,1,722
14,89,noPic,absent,hersens,blank.jpg,0,1,672
14,90,congruent,present,palm,51_Control.jpg,1,1,539
14,91,incongruent,present,zweep,4_T_Ball.jpg,1,1,801
14,92,noPic,absent,ball,blank.jpg,1,0,898
14,93,congruent,present,kussen,12_T_Cushion.jpg,1,1,654
14,94,congruent,present,fles,8_T_Bottle.jpg,1,1,721
14,95,noPic,absent,raket,blank.jpg,1,0,850
14,96,noPic,absent,vlinder,blank.jpg,0,1,752
14,97,congruent,present,hersens,30_S_Brain.jpg,1,1,587
14,98,congruent,present,spuitje,49_T_Injection.jpg,1,1,695
14,99,congruent,present,kussen,12_T_Cushion.jpg,0,0,625
14,100,noPic,absent,pen,blank.jpg,0,1,753
14,101,noPic,absent,kussen,blank.jpg,1,0,802
14,102,incongruent,present,fluit,50_T_Pen.jpg,1,1,710
14,103,noPic,absent,raket,blank.jpg,0,1,667
14,104,congruent,present,vlinder,28_T_Butterfly.jpg,1,1,619
14,105,incongruent,present,bonbon,51_Control.jpg,1,1,794
14,106,incongruent,present,fles,30_S_Brain.jpg,1,1,883
14,107,congruent,present,kraan,39_T_Crane.jpg,1,1,721
14,108,noPic,absent,spuitje,blank.jpg,1,0,1386
14,109,noPic,absent,palm,blank.jpg,0,1,656
14,110,congruent,present,kussen,12_T_Cushion.jpg,0,0,744
14,111,congruent,present,raket,17_T_Rocket.jpg,1,1,596
14,112,noPic,absent,pen,blank.jpg,1,0,857
14,113,noPic,absent,kraan,blank.jpg,1,0,1047
14,114,congruent,present,palm,51_Control.jpg,1,1,720
14,115,noPic,absent,fluit,blank.jpg,1,0,853
14,116,congruent,present,spuitje,49_T_Injection.jpg,1,1,977
14,117,incongruent,present,spuitje,32_T_Hat.jpg,1,1,1401
14,118,congruent,present,fluit,36_T_Flute.jpg,1,1,925
14,119,congruent,present,zweep,29_T_Whip.jpg,0,0,868
14,120,noPic,absent,raket,blank.jpg,0,1,842
14,121,noPic,absent,banaan,blank.jpg,0,1,1086
14,122,incongruent,present,vlinder,30_S_Brain.jpg,1,1,737
14,123,noPic,absent,zweep,blank.jpg,0,1,1059
14,124,noPic,absent,bonbon,blank.jpg,1,0,805
14,125,noPic,absent,kraan,blank.jpg,1,0,796
14,126,incongruent,present,kraan,50_T_Pen.jpg,1,1,758
14,127,noPic,absent,bonbon,blank.jpg,1,0,914
14,128,incongruent,present,hoed,49_T_Injection.jpg,0,0,916
14,129,noPic,absent,banaan,blank.jpg,0,1,829
14,130,incongruent,present,raket,12_T_Cushion.jpg,1,1,1583
14,131,noPic,absent,vlinder,blank.jpg,1,0,751
14,132,noPic,absent,hoed,blank.jpg,0,1,1042
14,133,incongruent,present,banaan,28_T_Butterfly.jpg,1,1,762
14,134,congruent,present,ball,4_T_Ball.jpg,1,1,574
14,135,congruent,present,pen,50_T_Pen.jpg,1,1,1022
14,136,noPic,absent,raket,blank.jpg,1,0,1149
14,137,noPic,absent,pen,blank.jpg,1,0,1289
14,138,noPic,absent,zweep,blank.jpg,0,1,882
14,139,congruent,present,pen,50_T_Pen.jpg,0,0,859
14,140,incongruent,present,pen,49_T_Injection.jpg,0,0,904
14,141,congruent,present,fles,8_T_Bottle.jpg,0,0,1380
14,142,noPic,absent,hoed,blank.jpg,0,1,1493
14,143,incongruent,present,pen,52_T_Bonbon.jpg,0,0,1041
14,144,incongruent,present,bonbon,50_T_Pen.jpg,1,1,750
14,145,noPic,absent,pen,blank.jpg,1,0,1376
14,146,noPic,absent,bonbon,blank.jpg,0,1,714
14,147,congruent,present,pen,50_T_Pen.jpg,1,1,901
14,148,noPic,absent,zweep,blank.jpg,0,1,1037
14,149,congruent,present,banaan,1_T_Banaan.jpg,0,0,1040
14,150,noPic,absent,ball,blank.jpg,0,1,1244
14,151,noPic,absent,pen,blank.jpg,0,1,1320
14,152,noPic,absent,hersens,blank.jpg,0,1,1032
14,153,noPic,absent,ball,blank.jpg,0,1,729
14,154,noPic,absent,spuitje,blank.jpg,0,1,825
14,155,noPic,absent,zweep,blank.jpg,0,1,1106
14,156,noPic,absent,hark,blank.jpg,1,0,1057
14,157,noPic,absent,bonbon,blank.jpg,0,1,797
14,158,noPic,absent,hark,blank.jpg,0,1,858
14,159,congruent,present,hersens,30_S_Brain.jpg,1,1,778
14,160,noPic,absent,hark,blank.jpg,0,1,749
14,161,congruent,present,hoed,32_T_Hat.jpg,1,1,699
14,162,incongruent,present,zweep,8_T_Bottle.jpg,0,0,959
14,163,congruent,present,vlinder,28_T_Butterfly.jpg,1,1,864
14,164,congruent,present,hark,38_T_Hark.jpg,0,0,1011
14,165,incongruent,present,palm,38_T_Hark.jpg,0,0,942
14,166,congruent,present,ball,4_T_Ball.jpg,1,1,704
14,167,incongruent,present,zweep,1_T_Banaan.jpg,1,1,941
14,168,noPic,absent,kussen,blank.jpg,0,1,918
14,169,noPic,absent,ball,blank.jpg,0,1,743
14,170,noPic,absent,bonbon,blank.jpg,0,1,794
14,171,noPic,absent,raket,blank.jpg,0,1,1114
14,172,incongruent,present,kussen,17_T_Rocket.jpg,0,0,680
14,173,noPic,absent,kussen,blank.jpg,0,1,734
14,174,noPic,absent,hersens,blank.jpg,0,1,809
14,175,incongruent,present,kussen,30_S_Brain.jpg,1,1,641
14,176,noPic,absent,zweep,blank.jpg,0,1,800
14,177,incongruent,present,pen,39_T_Crane.jpg,1,1,699
14,178,incongruent,present,hersens,17_T_Rocket.jpg,0,0,851
14,179,noPic,absent,hark,blank.jpg,0,1,900
14,180,noPic,absent,fluit,blank.jpg,0,1,700
14,181,noPic,absent,raket,blank.jpg,0,1,737
14,182,incongruent,present,vlinder,29_T_Whip.jpg,0,0,1191
14,183,incongruent,present,hoed,36_T_Flute.jpg,0,0,681
14,184,incongruent,present,spuitje,38_T_Hark.jpg,1,1,851
14,185,noPic,absent,hoed,blank.jpg,0,1,615
14,186,congruent,present,palm,51_Control.jpg,1,1,800
14,187,incongruent,present,zweep,30_S_Brain.jpg,1,1,1174
14,188,noPic,absent,banaan,blank.jpg,0,1,749
14,189,incongruent,present,fluit,51_Control.jpg,1,1,703
14,190,congruent,present,bonbon,52_T_Bonbon.jpg,1,1,742
14,191,congruent,present,hersens,30_S_Brain.jpg,1,1,748
14,192,noPic,absent,hark,blank.jpg,1,0,750
14,193,noPic,absent,fles,blank.jpg,0,1,604
14,194,noPic,absent,fluit,blank.jpg,0,1,736
14,195,congruent,present,zweep,29_T_Whip.jpg,1,1,611
14,196,incongruent,present,hersens,12_T_Cushion.jpg,0,0,934
14,197,noPic,absent,kraan,blank.jpg,0,1,845
14,198,incongruent,present,raket,4_T_Ball.jpg,1,1,696
14,199,noPic,absent,fluit,blank.jpg,0,1,785
14,200,congruent,present,ball,4_T_Ball.jpg,1,1,619
14,201,noPic,absent,spuitje,blank.jpg,0,1,729
14,202,incongruent,present,kussen,29_T_Whip.jpg,1,1,729
14,203,incongruent,present,palm,49_T_Injection.jpg,0,0,615
14,204,congruent,present,banaan,1_T_Banaan.jpg,1,1,706
14,205,congruent,present,hoed,32_T_Hat.jpg,1,1,570
14,206,congruent,present,fluit,36_T_Flute.jpg,1,1,521
14,207,noPic,absent,banaan,blank.jpg,0,1,508
14,208,congruent,present,hoed,32_T_Hat.jpg,1,1,598
14,209,congruent,present,spuitje,49_T_Injection.jpg,0,0,743
14,210,noPic,absent,fles,blank.jpg,0,1,722
14,211,noPic,absent,banaan,blank.jpg,0,1,603
14,212,incongruent,present,palm,52_T_Bonbon.jpg,1,1,615
14,213,incongruent,present,kraan,52_T_Bonbon.jpg,1,1,568
14,214,congruent,present,fles,8_T_Bottle.jpg,1,1,732
14,215,congruent,present,fluit,36_T_Flute.jpg,1,1,710
14,216,noPic,absent,zweep,blank.jpg,0,1,656
14,217,incongruent,present,fluit,32_T_Hat.jpg,1,1,604
14,218,noPic,absent,banaan,blank.jpg,0,1,651
14,219,noPic,absent,kussen,blank.jpg,0,1,713
14,220,incongruent,present,hark,49_T_Injection.jpg,0,0,714
14,221,noPic,absent,spuitje,blank.jpg,0,1,772
14,222,noPic,absent,zweep,blank.jpg,0,1,753
14,223,incongruent,present,bonbon,32_T_Hat.jpg,1,1,578
14,224,congruent,present,ball,4_T_Ball.jpg,1,1,730
14,225,noPic,absent,pen,blank.jpg,0,1,799
14,226,noPic,absent,fluit,blank.jpg,0,1,769
14,227,noPic,absent,pen,blank.jpg,0,1,651
14,228,noPic,absent,kussen,blank.jpg,0,1,626
14,229,incongruent,present,hoed,38_T_Hark.jpg,0,0,634
14,230,incongruent,present,ball,17_T_Rocket.jpg,0,0,714
14,231,incongruent,present,palm,50_T_Pen.jpg,0,0,757
14,232,incongruent,present,hark,39_T_Crane.jpg,1,1,976
14,233,congruent,present,hark,38_T_Hark.jpg,0,0,770
14,234,congruent,present,hoed,32_T_Hat.jpg,1,1,674
14,235,incongruent,present,fluit,52_T_Bonbon.jpg,1,1,778
14,236,noPic,absent,ball,blank.jpg,0,1,696
14,237,congruent,present,zweep,29_T_Whip.jpg,1,1,907
14,238,noPic,absent,fles,blank.jpg,0,1,728
14,239,congruent,present,raket,17_T_Rocket.jpg,0,0,693
14,240,noPic,absent,bonbon,blank.jpg,0,1,691
14,241,noPic,absent,spuitje,blank.jpg,0,1,721
14,242,congruent,present,fles,8_T_Bottle.jpg,0,0,673
14,243,congruent,present,banaan,1_T_Banaan.jpg,0,0,1243
14,244,noPic,absent,vlinder,blank.jpg,0,1,754
14,245,incongruent,present,vlinder,8_T_Bottle.jpg,1,1,699
14,246,noPic,absent,hoed,blank.jpg,0,1,796
14,247,congruent,present,kraan,39_T_Crane.jpg,1,1,721
14,248,noPic,absent,palm,blank.jpg,0,1,786
14,249,incongruent,present,hoed,39_T_Crane.jpg,0,0,905
14,250,noPic,absent,vlinder,blank.jpg,0,1,943
14,251,noPic,absent,kraan,blank.jpg,0,1,760
14,252,incongruent,present,fles,12_T_Cushion.jpg,0,0,888
14,253,noPic,absent,fles,blank.jpg,0,1,864
14,254,noPic,absent,spuitje,blank.jpg,0,1,942
14,255,noPic,absent,banaan,blank.jpg,0,1,843
14,256,noPic,absent,hoed,blank.jpg,0,1,746
15,1,incongruent,present,raket,8_T_Bottle.jpg,0,0,1910
15,2,noPic,absent,hark,blank.jpg,0,1,990
15,3,noPic,absent,hersens,blank.jpg,0,1,1073
15,4,congruent,present,banaan,1_T_Banaan.jpg,1,1,614
15,5,incongruent,present,raket,4_T_Ball.jpg,1,1,715
15,6,incongruent,present,raket,12_T_Cushion.jpg,1,1,640
15,7,congruent,present,kussen,12_T_Cushion.jpg,1,1,570
15,8,congruent,present,banaan,1_T_Banaan.jpg,1,1,504
15,9,noPic,absent,banaan,blank.jpg,0,1,703
15,10,incongruent,present,pen,52_T_Bonbon.jpg,0,0,766
15,11,noPic,absent,bonbon,blank.jpg,0,1,558
15,12,congruent,present,hersens,30_S_Brain.jpg,0,0,595
15,13,noPic,absent,ball,blank.jpg,1,0,639
15,14,incongruent,present,ball,17_T_Rocket.jpg,1,1,575
15,15,incongruent,present,zweep,1_T_Banaan.jpg,0,0,600
15,16,noPic,absent,raket,blank.jpg,0,1,885
15,17,noPic,absent,hoed,blank.jpg,0,1,1175
15,18,congruent,present,raket,17_T_Rocket.jpg,1,1,659
15,19,noPic,absent,spuitje,blank.jpg,0,1,666
15,20,noPic,absent,fluit,blank.jpg,0,1,644
15,21,congruent,present,kussen,12_T_Cushion.jpg,0,0,481
15,22,incongruent,present,banaan,28_T_Butterfly.jpg,1,1,687
15,23,congruent,present,ball,4_T_Ball.jpg,1,1,496
15,24,congruent,present,kussen,12_T_Cushion.jpg,0,0,685
15,25,incongruent,present,kraan,50_T_Pen.jpg,0,0,583
15,26,noPic,absent,kussen,blank.jpg,0,1,549
15,27,noPic,absent,hersens,blank.jpg,0,1,558
15,28,noPic,absent,palm,blank.jpg,0,1,546
15,29,noPic,absent,fles,blank.jpg,0,1,515
15,30,noPic,absent,fles,blank.jpg,0,1,509
15,31,noPic,absent,hoed,blank.jpg,0,1,2034
15,32,incongruent,present,hark,49_T_Injection.jpg,0,0,584
15,33,incongruent,present,banaan,29_T_Whip.jpg,0,0,647
15,34,noPic,absent,bonbon,blank.jpg,0,1,592
15,35,congruent,present,pen,50_T_Pen.jpg,0,0,499
15,36,congruent,present,vlinder,28_T_Butterfly.jpg,1,1,711
15,37,noPic,absent,fles,blank.jpg,0,1,513
15,38,noPic,absent,hoed,blank.jpg,0,1,560
15,39,noPic,absent,hoed,blank.jpg,0,1,521
15,40,incongruent,present,banaan,4_T_Ball.jpg,1,1,497
15,41,noPic,absent,palm,blank.jpg,0,1,1605
15,42,noPic,absent,kussen,blank.jpg,0,1,584
15,43,noPic,absent,banaan,blank.jpg,0,1,583
15,44,congruent,present,hark,38_T_Hark.jpg,0,0,669
15,45,congruent,present,zweep,29_T_Whip.jpg,1,1,528
15,46,incongruent,present,kraan,51_Control.jpg,1,1,647
15,47,congruent,present,kraan,39_T_Crane.jpg,0,0,694
15,48,noPic,absent,ball,blank.jpg,0,1,577
15,49,noPic,absent,spuitje,blank.jpg,0,1,667
15,50,noPic,absent,spuitje,blank.jpg,0,1,697
15,51,noPic,absent,zweep,blank.jpg,0,1,719
15,52,noPic,absent,kraan,blank.jpg,0,1,650
15,53,congruent,present,vlinder,28_T_Butterfly.jpg,1,1,614
15,54,congruent,present,ball,4_T_Ball.jpg,1,1,569
15,55,incongruent,present,kussen,29_T_Whip.jpg,1,1,533
15,56,noPic,absent,kraan,blank.jpg,0,1,557
15,57,noPic,absent,pen,blank.jpg,1,0,507
15,58,noPic,absent,hoed,blank.jpg,1,0,745
15,59,incongruent,present,hark,32_T_Hat.jpg,1,1,619
15,60,congruent,present,ball,4_T_Ball.jpg,1,1,461
15,61,noPic,absent,fluit,blank.jpg,1,0,531
15,62,congruent,present,hark,38_T_Hark.jpg,0,0,1525
15,63,noPic,absent,bonbon,blank.jpg,0,1,650
15,64,congruent,present,bonbon,52_T_Bonbon.jpg,0,0,722
15,65,congruent,present,banaan,1_T_Banaan.jpg,1,1,616
15,66,congruent,present,vlinder,28_T_Butterfly.jpg,1,1,662
15,67,noPic,absent,kraan,blank.jpg,0,1,697
15,68,noPic,absent,vlinder,blank.jpg,0,1,644
15,69,incongruent,present,raket,1_T_Banaan.jpg,1,1,736
15,70,noPic,absent,bonbon,blank.jpg,0,1,647
15,71,congruent,present,raket,17_T_Rocket.jpg,0,0,638
15,72,noPic,absent,fles,blank.jpg,0,1,608
15,73,congruent,present,ball,4_T_Ball.jpg,1,1,532
15,74,noPic,absent,bonbon,blank.jpg,0,1,522
15,75,incongruent,present,spuitje,39_T_Crane.jpg,0,0,692
15,76,incongruent,present,zweep,30_S_Brain.jpg,1,1,599
15,77,incongruent,present,bonbon,36_T_Flute.jpg,0,0,604
15,78,incongruent,present,hersens,17_T_Rocket.jpg,0,0,638
15,79,congruent,present,fluit,36_T_Flute.jpg,0,0,699
15,80,noPic,absent,fles,blank.jpg,0,1,668
15,81,congruent,present,kraan,39_T_Crane.jpg,1,1,629
15,82,congruent,present,fluit,36_T_Flute.jpg,0,0,609
15,83,noPic,absent,vlinder,blank.jpg,0,1,541
15,84,noPic,absent,zweep,blank.jpg,0,1,653
15,85,noPic,absent,vlinder,blank.jpg,0,1,533
15,86,congruent,present,fluit,36_T_Flute.jpg,0,0,709
15,87,noPic,absent,ball,blank.jpg,0,1,611
15,88,incongruent,present,kraan,52_T_Bonbon.jpg,0,0,585
15,89,congruent,present,hoed,32_T_Hat.jpg,1,1,516
15,90,noPic,absent,kussen,blank.jpg,0,1,583
15,91,congruent,present,zweep,29_T_Whip.jpg,0,0,794
15,92,incongruent,present,hark,39_T_Crane.jpg,0,0,520
15,93,noPic,absent,hoed,blank.jpg,0,1,523
15,94,noPic,absent,spuitje,blank.jpg,0,1,722
15,95,congruent,present,vlinder,28_T_Butterfly.jpg,1,1,516
15,96,noPic,absent,hark,blank.jpg,0,1,543
15,97,congruent,present,fles,8_T_Bottle.jpg,0,0,588
15,98,incongruent,present,hersens,28_T_Butterfly.jpg,1,1,792
15,99,congruent,present,hoed,32_T_Hat.jpg,0,0,565
15,100,noPic,absent,vlinder,blank.jpg,0,1,683
15,101,congruent,present,bonbon,52_T_Bonbon.jpg,0,0,670
15,102,noPic,absent,banaan,blank.jpg,0,1,597
15,103,incongruent,present,fles,12_T_Cushion.jpg,0,0,611
15,104,incongruent,present,fles,1_T_Banaan.jpg,1,1,660
15,105,noPic,absent,hark,blank.jpg,0,1,503
15,106,incongruent,present,ball,12_T_Cushion.jpg,0,0,567
15,107,noPic,absent,raket,blank.jpg,0,1,620
15,108,noPic,absent,hersens,blank.jpg,0,1,651
15,109,congruent,present,hoed,32_T_Hat.jpg,1,1,708
15,110,incongruent,present,fles,30_S_Brain.jpg,1,1,1011
15,111,noPic,absent,raket,blank.jpg,0,1,539
15,112,incongruent,present,ball,8_T_Bottle.jpg,0,0,589
15,113,incongruent,present,pen,51_Control.jpg,1,1,752
15,114,noPic,absent,fles,blank.jpg,0,1,533
15,115,noPic,absent,fluit,blank.jpg,0,1,605
15,116,congruent,present,bonbon,52_T_Bonbon.jpg,0,0,899
15,117,noPic,absent,bonbon,blank.jpg,0,1,754
15,118,noPic,absent,zweep,blank.jpg,0,1,706
15,119,incongruent,present,hark,36_T_Flute.jpg,0,0,610
15,120,noPic,absent,palm,blank.jpg,0,1,505
15,121,incongruent,present,palm,49_T_Injection.jpg,0,0,533
15,122,noPic,absent,kussen,blank.jpg,0,1,603
15,123,noPic,absent,spuitje,blank.jpg,0,1,695
15,124,incongruent,present,fluit,50_T_Pen.jpg,0,0,634
15,125,congruent,present,fles,8_T_Bottle.jpg,0,0,767
15,126,noPic,absent,pen,blank.jpg,0,1,620
15,127,congruent,present,hersens,30_S_Brain.jpg,1,1,677
15,128,noPic,absent,bonbon,blank.jpg,0,1,671
15,129,incongruent,present,kussen,28_T_Butterfly.jpg,1,1,571
15,130,noPic,absent,kussen,blank.jpg,0,1,1285
15,131,incongruent,present,palm,50_T_Pen.jpg,0,0,654
15,132,noPic,absent,raket,blank.jpg,0,1,575
15,133,incongruent,present,vlinder,8_T_Bottle.jpg,1,1,629
15,134,noPic,absent,pen,blank.jpg,0,1,561
15,135,congruent,present,raket,17_T_Rocket.jpg,0,0,604
15,136,congruent,present,raket,17_T_Rocket.jpg,0,0,642
15,137,noPic,absent,pen,blank.jpg,0,1,551
15,138,congruent,present,hark,38_T_Hark.jpg,0,0,625
15,139,noPic,absent,kraan,blank.jpg,0,1,588
15,140,noPic,absent,banaan,blank.jpg,0,1,686
15,141,incongruent,present,fluit,32_T_Hat.jpg,1,1,554
15,142,noPic,absent,ball,blank.jpg,0,1,583
15,143,noPic,absent,bonbon,blank.jpg,0,1,572
15,144,incongruent,present,kussen,30_S_Brain.jpg,1,1,630
15,145,congruent,present,spuitje,49_T_Injection.jpg,0,0,571
15,146,noPic,absent,vlinder,blank.jpg,0,1,589
15,147,congruent,present,palm,51_Control.jpg,1,1,704
15,148,incongruent,present,bonbon,51_Control.jpg,1,1,718
15,149,noPic,absent,zweep,blank.jpg,0,1,597
15,150,noPic,absent,ball,blank.jpg,0,1,596
15,151,noPic,absent,hersens,blank.jpg,0,1,655
15,152,noPic,absent,zweep,blank.jpg,0,1,585
15,153,noPic,absent,pen,blank.jpg,0,1,589
15,154,noPic,absent,zweep,blank.jpg,0,1,660
15,155,incongruent,present,hoed,36_T_Flute.jpg,0,0,459
15,156,incongruent,present,hersens,12_T_Cushion.jpg,0,0,579
15,157,congruent,present,fles,8_T_Bottle.jpg,0,0,484
15,158,incongruent,present,kraan,38_T_Hark.jpg,0,0,500
15,159,incongruent,present,zweep,8_T_Bottle.jpg,0,0,593
15,160,congruent,present,kraan,39_T_Crane.jpg,0,0,1441
15,161,noPic,absent,raket,blank.jpg,0,1,600
15,162,noPic,absent,banaan,blank.jpg,0,1,551
15,163,noPic,absent,hark,blank.jpg,0,1,647
15,164,incongruent,present,bonbon,50_T_Pen.jpg,0,0,689
15,165,congruent,present,palm,51_Control.jpg,1,1,611
15,166,incongruent,present,palm,52_T_Bonbon.jpg,0,0,528
15,167,congruent,present,pen,50_T_Pen.jpg,0,0,539
15,168,noPic,absent,raket,blank.jpg,0,1,694
15,169,incongruent,present,ball,1_T_Banaan.jpg,0,0,561
15,170,congruent,present,spuitje,49_T_Injection.jpg,0,0,705
15,171,noPic,absent,palm,blank.jpg,0,1,692
15,172,noPic,absent,kraan,blank.jpg,0,1,580
15,173,noPic,absent,hoed,blank.jpg,0,1,635
15,174,noPic,absent,fluit,blank.jpg,0,1,621
15,175,congruent,present,kussen,12_T_Cushion.jpg,0,0,568
15,176,noPic,absent,fluit,blank.jpg,0,1,645
15,177,incongruent,present,spuitje,36_T_Flute.jpg,0,0,665
15,178,congruent,present,hersens,30_S_Brain.jpg,0,0,676
15,179,incongruent,present,fluit,52_T_Bonbon.jpg,0,0,687
15,180,congruent,present,kraan,39_T_Crane.jpg,1,1,659
15,181,noPic,absent,spuitje,blank.jpg,0,1,644
15,182,noPic,absent,hersens,blank.jpg,0,1,639
15,183,incongruent,present,pen,49_T_Injection.jpg,0,0,649
15,184,noPic,absent,fluit,blank.jpg,0,1,727
15,185,noPic,absent,palm,blank.jpg,0,1,641
15,186,incongruent,present,bonbon,32_T_Hat.jpg,1,1,666
15,187,incongruent,present,hersens,29_T_Whip.jpg,0,0,683
15,188,incongruent,present,fluit,51_Control.jpg,1,1,651
15,189,noPic,absent,pen,blank.jpg,0,1,493
15,190,congruent,present,zweep,29_T_Whip.jpg,1,1,606
15,191,noPic,absent,hark,blank.jpg,0,1,522
15,192,noPic,absent,hersens,blank.jpg,0,1,598
15,193,noPic,absent,banaan,blank.jpg,0,1,619
15,194,incongruent,present,vlinder,30_S_Brain.jpg,1,1,615
15,195,congruent,present,bonbon,52_T_Bonbon.jpg,1,1,926
15,196,noPic,absent,kraan,blank.jpg,0,1,475
15,197,noPic,absent,kraan,blank.jpg,0,1,1550
15,198,noPic,absent,vlinder,blank.jpg,0,1,559
15,199,congruent,present,spuitje,49_T_Injection.jpg,0,0,504
15,200,congruent,present,hersens,30_S_Brain.jpg,0,0,708
15,201,congruent,present,spuitje,49_T_Injection.jpg,0,0,679
15,202,noPic,absent,ball,blank.jpg,0,1,644
15,203,incongruent,present,spuitje,38_T_Hark.jpg,0,0,900
15,204,noPic,absent,palm,blank.jpg,0,1,537
15,205,noPic,absent,banaan,blank.jpg,0,1,510
15,206,noPic,absent,kraan,blank.jpg,0,1,1323
15,207,congruent,present,fluit,36_T_Flute.jpg,0,0,672
15,208,congruent,present,hoed,32_T_Hat.jpg,0,0,677
15,209,noPic,absent,hoed,blank.jpg,0,1,746
15,210,noPic,absent,kussen,blank.jpg,0,1,690
15,211,incongruent,present,pen,39_T_Crane.jpg,0,0,700
15,212,noPic,absent,raket,blank.jpg,0,1,704
15,213,incongruent,present,hoed,38_T_Hark.jpg,0,0,738
15,214,noPic,absent,raket,blank.jpg,0,1,695
15,215,noPic,absent,spuitje,blank.jpg,0,1,729
15,216,incongruent,present,hoed,49_T_Injection.jpg,0,0,759
15,217,congruent,present,zweep,29_T_Whip.jpg,1,1,665
15,218,congruent,present,pen,50_T_Pen.jpg,0,0,567
15,219,congruent,present,vlinder,28_T_Butterfly.jpg,1,1,680
15,220,congruent,present,fles,8_T_Bottle.jpg,0,0,603
15,221,noPic,absent,raket,blank.jpg,0,1,730
15,222,congruent,present,palm,51_Control.jpg,1,1,610
15,223,noPic,absent,fles,blank.jpg,0,1,562
15,224,noPic,absent,zweep,blank.jpg,0,1,641
15,225,noPic,absent,pen,blank.jpg,0,1,711
15,226,incongruent,present,kussen,17_T_Rocket.jpg,0,0,677
15,227,incongruent,present,palm,38_T_Hark.jpg,0,0,744
15,228,noPic,absent,vlinder,blank.jpg,0,1,710
15,229,noPic,absent,fles,blank.jpg,0,1,657
15,230,incongruent,present,hoed,39_T_Crane.jpg,1,1,657
15,231,incongruent,present,spuitje,32_T_Hat.jpg,0,0,652
15,232,noPic,absent,pen,blank.jpg,0,1,575
15,233,congruent,present,pen,50_T_Pen.jpg,0,0,572
15,234,noPic,absent,palm,blank.jpg,0,1,649
15,235,incongruent,present,zweep,4_T_Ball.jpg,1,1,642
15,236,noPic,absent,fluit,blank.jpg,0,1,587
15,237,congruent,present,hark,38_T_Hark.jpg,0,0,684
15,238,congruent,present,palm,51_Control.jpg,1,1,587
15,239,noPic,absent,ball,blank.jpg,0,1,600
15,240,congruent,present,raket,17_T_Rocket.jpg,0,0,707
15,241,noPic,absent,zweep,blank.jpg,0,1,683
15,242,noPic,absent,hersens,blank.jpg,0,1,665
15,243,noPic,absent,kussen,blank.jpg,0,1,602
15,244,noPic,absent,spuitje,blank.jpg,0,1,723
15,245,incongruent,present,vlinder,29_T_Whip.jpg,1,1,583
15,246,noPic,absent,palm,blank.jpg,0,1,568
15,247,incongruent,present,fles,4_T_Ball.jpg,1,1,564
15,248,noPic,absent,hark,blank.jpg,0,1,583
15,249,noPic,absent,hark,blank.jpg,0,1,617
15,250,noPic,absent,kussen,blank.jpg,0,1,637
15,251,congruent,present,banaan,1_T_Banaan.jpg,1,1,619
15,252,noPic,absent,vlinder,blank.jpg,0,1,608
15,253,noPic,absent,hersens,blank.jpg,0,1,653
15,254,noPic,absent,hark,blank.jpg,0,1,530
15,255,noPic,absent,ball,blank.jpg,1,0,656
15,256,noPic,absent,fluit,blank.jpg,0,1,605
16,1,noPic,absent,hersens,blank.jpg,0,1,943
16,2,noPic,absent,fles,blank.jpg,0,1,755
16,3,noPic,absent,hark,blank.jpg,1,0,690
16,4,noPic,absent,pen,blank.jpg,0,1,752
16,5,noPic,absent,spuitje,blank.jpg,0,1,1096
16,6,incongruent,present,vlinder,8_T_Bottle.jpg,1,1,738
16,7,congruent,present,zweep,29_T_Whip.jpg,0,0,781
16,8,noPic,absent,bonbon,blank.jpg,0,1,1050
16,9,congruent,present,zweep,29_T_Whip.jpg,1,1,706
16,10,congruent,present,palm,51_Control.jpg,1,1,804
16,11,congruent,present,vlinder,28_T_Butterfly.jpg,1,1,677
16,12,incongruent,present,bonbon,32_T_Hat.jpg,1,1,881
16,13,congruent,present,zweep,29_T_Whip.jpg,1,1,798
16,14,noPic,absent,hersens,blank.jpg,0,1,776
16,15,incongruent,present,fles,12_T_Cushion.jpg,0,0,868
16,16,noPic,absent,vlinder,blank.jpg,0,1,1074
16,17,congruent,present,hoed,32_T_Hat.jpg,1,1,478
16,18,noPic,absent,kraan,blank.jpg,0,1,804
16,19,congruent,present,kussen,12_T_Cushion.jpg,0,0,814
16,20,noPic,absent,raket,blank.jpg,0,1,823
16,21,congruent,present,spuitje,49_T_Injection.jpg,0,0,1046
16,22,incongruent,present,fles,4_T_Ball.jpg,1,1,493
16,23,noPic,absent,ball,blank.jpg,0,1,822
16,24,noPic,absent,palm,blank.jpg,1,0,929
16,25,congruent,present,kussen,12_T_Cushion.jpg,0,0,629
16,26,incongruent,present,kraan,38_T_Hark.jpg,0,0,652
16,27,noPic,absent,hark,blank.jpg,0,1,781
16,28,congruent,present,bonbon,52_T_Bonbon.jpg,1,1,564
16,29,noPic,absent,ball,blank.jpg,0,1,2725
16,30,noPic,absent,hoed,blank.jpg,1,0,489
16,31,incongruent,present,pen,39_T_Crane.jpg,0,0,2541
16,32,noPic,absent,pen,blank.jpg,1,0,1423
16,33,incongruent,present,hersens,28_T_Butterfly.jpg,1,1,713
16,34,congruent,present,hersens,30_S_Brain.jpg,1,1,521
16,35,congruent,present,spuitje,49_T_Injection.jpg,0,0,710
16,36,incongruent,present,spuitje,32_T_Hat.jpg,1,1,489
16,37,noPic,absent,spuitje,blank.jpg,0,1,750
16,38,noPic,absent,kraan,blank.jpg,1,0,502
16,39,noPic,absent,hoed,blank.jpg,0,1,589
16,40,noPic,absent,pen,blank.jpg,1,0,632
16,41,noPic,absent,fles,blank.jpg,0,1,719
16,42,noPic,absent,hark,blank.jpg,0,1,572
16,43,noPic,absent,hersens,blank.jpg,0,1,579
16,44,noPic,absent,hoed,blank.jpg,0,1,688
16,45,congruent,present,kraan,39_T_Crane.jpg,1,1,579
16,46,noPic,absent,fluit,blank.jpg,0,1,528
16,47,incongruent,present,hoed,49_T_Injection.jpg,1,1,577
16,48,noPic,absent,fles,blank.jpg,0,1,675
16,49,noPic,absent,fles,blank.jpg,0,1,542
16,50,congruent,present,hark,38_T_Hark.jpg,1,1,647
16,51,noPic,absent,fluit,blank.jpg,0,1,647
16,52,congruent,present,bonbon,52_T_Bonbon.jpg,1,1,541
16,53,noPic,absent,hark,blank.jpg,0,1,580
16,54,incongruent,present,zweep,4_T_Ball.jpg,1,1,629
16,55,noPic,absent,fles,blank.jpg,0,1,634
16,56,congruent,present,banaan,1_T_Banaan.jpg,0,0,595
16,57,congruent,present,hark,38_T_Hark.jpg,1,1,529
16,58,noPic,absent,spuitje,blank.jpg,0,1,677
16,59,noPic,absent,ball,blank.jpg,0,1,696
16,60,congruent,present,fluit,36_T_Flute.jpg,0,0,530
16,61,noPic,absent,vlinder,blank.jpg,0,1,641
16,62,noPic,absent,palm,blank.jpg,0,1,750
16,63,incongruent,present,raket,12_T_Cushion.jpg,0,0,516
16,64,noPic,absent,hark,blank.jpg,0,1,1807
16,65,congruent,present,vlinder,28_T_Butterfly.jpg,1,1,459
16,66,congruent,present,vlinder,28_T_Butterfly.jpg,1,1,1723
16,67,noPic,absent,hoed,blank.jpg,0,1,590
16,68,incongruent,present,kraan,50_T_Pen.jpg,1,1,605
16,69,noPic,absent,kussen,blank.jpg,0,1,566
16,70,noPic,absent,pen,blank.jpg,0,1,536
16,71,noPic,absent,palm,blank.jpg,0,1,473
16,72,noPic,absent,zweep,blank.jpg,0,1,543
16,73,incongruent,present,ball,8_T_Bottle.jpg,0,0,532
16,74,noPic,absent,kussen,blank.jpg,0,1,558
16,75,incongruent,present,fluit,32_T_Hat.jpg,1,1,581
16,76,incongruent,present,spuitje,36_T_Flute.jpg,0,0,677
16,77,noPic,absent,hoed,blank.jpg,0,1,693
16,78,congruent,present,kraan,39_T_Crane.jpg,1,1,601
16,79,incongruent,present,vlinder,29_T_Whip.jpg,1,1,720
16,80,noPic,absent,hersens,blank.jpg,0,1,644
16,81,congruent,present,fles,8_T_Bottle.jpg,1,1,487
16,82,incongruent,present,hoed,39_T_Crane.jpg,0,0,464
16,83,noPic,absent,hark,blank.jpg,0,1,555
16,84,congruent,present,pen,50_T_Pen.jpg,1,1,496
16,85,incongruent,present,hoed,36_T_Flute.jpg,0,0,476
16,86,congruent,present,palm,51_Control.jpg,1,1,512
16,87,noPic,absent,spuitje,blank.jpg,0,1,573
16,88,noPic,absent,fluit,blank.jpg,0,1,590
16,89,incongruent,present,palm,38_T_Hark.jpg,1,1,522
16,90,noPic,absent,ball,blank.jpg,0,1,465
16,91,congruent,present,hark,38_T_Hark.jpg,1,1,487
16,92,incongruent,present,bonbon,51_Control.jpg,1,1,597
16,93,noPic,absent,palm,blank.jpg,0,1,1549
16,94,incongruent,present,kussen,30_S_Brain.jpg,1,1,544
16,95,noPic,absent,hoed,blank.jpg,0,1,1398
16,96,noPic,absent,raket,blank.jpg,0,1,720
16,97,noPic,absent,hersens,blank.jpg,0,1,794
16,98,noPic,absent,fluit,blank.jpg,1,0,1041
16,99,incongruent,present,ball,17_T_Rocket.jpg,1,1,832
16,100,noPic,absent,palm,blank.jpg,0,1,719
16,101,congruent,present,banaan,1_T_Banaan.jpg,0,0,694
16,102,incongruent,present,hersens,12_T_Cushion.jpg,0,0,666
16,103,congruent,present,fles,8_T_Bottle.jpg,1,1,651
16,104,noPic,absent,ball,blank.jpg,0,1,726
16,105,congruent,present,palm,51_Control.jpg,1,1,451
16,106,incongruent,present,pen,49_T_Injection.jpg,0,0,464
16,107,noPic,absent,kraan,blank.jpg,1,0,569
16,108,congruent,present,hoed,32_T_Hat.jpg,1,1,574
16,109,congruent,present,raket,17_T_Rocket.jpg,1,1,593
16,110,incongruent,present,raket,4_T_Ball.jpg,1,1,692
16,111,incongruent,present,vlinder,30_S_Brain.jpg,1,1,652
16,112,incongruent,present,zweep,1_T_Banaan.jpg,0,0,660
16,113,noPic,absent,kraan,blank.jpg,0,1,695
16,114,noPic,absent,fluit,blank.jpg,0,1,735
16,115,noPic,absent,ball,blank.jpg,0,1,872
16,116,congruent,present,fles,8_T_Bottle.jpg,0,0,780
16,117,noPic,absent,banaan,blank.jpg,0,1,769
16,118,noPic,absent,hoed,blank.jpg,0,1,702
16,119,congruent,present,fles,8_T_Bottle.jpg,1,1,612
16,120,incongruent,present,hark,36_T_Flute.jpg,0,0,535
16,121,incongruent,present,kussen,17_T_Rocket.jpg,1,1,587
16,122,noPic,absent,bonbon,blank.jpg,0,1,570
16,123,incongruent,present,banaan,4_T_Ball.jpg,1,1,583
16,124,noPic,absent,hoed,blank.jpg,0,1,500
16,125,noPic,absent,vlinder,blank.jpg,0,1,545
16,126,noPic,absent,vlinder,blank.jpg,0,1,522
16,127,congruent,present,spuitje,49_T_Injection.jpg,0,0,774
16,128,incongruent,present,hersens,17_T_Rocket.jpg,0,0,575
16,129,noPic,absent,raket,blank.jpg,0,1,471
16,130,noPic,absent,banaan,blank.jpg,0,1,527
16,131,noPic,absent,spuitje,blank.jpg,0,1,485
16,132,congruent,present,bonbon,52_T_Bonbon.jpg,1,1,564
16,133,noPic,absent,bonbon,blank.jpg,0,1,2864
16,134,noPic,absent,hersens,blank.jpg,0,1,556
16,135,noPic,absent,hersens,blank.jpg,0,1,491
16,136,incongruent,present,raket,8_T_Bottle.jpg,1,1,595
16,137,noPic,absent,bonbon,blank.jpg,0,1,551
16,138,incongruent,present,zweep,8_T_Bottle.jpg,1,1,605
16,139,noPic,absent,hark,blank.jpg,0,1,1211
16,140,congruent,present,hoed,32_T_Hat.jpg,1,1,722
16,141,incongruent,present,ball,12_T_Cushion.jpg,1,1,493
16,142,noPic,absent,fles,blank.jpg,0,1,1134
16,143,noPic,absent,pen,blank.jpg,0,1,663
16,144,congruent,present,palm,51_Control.jpg,1,1,556
16,145,congruent,present,spuitje,49_T_Injection.jpg,0,0,705
16,146,incongruent,present,palm,50_T_Pen.jpg,0,0,553
16,147,incongruent,present,raket,1_T_Banaan.jpg,0,0,723
16,148,noPic,absent,vlinder,blank.jpg,0,1,787
16,149,congruent,present,fluit,36_T_Flute.jpg,0,0,802
16,150,congruent,present,fluit,36_T_Flute.jpg,0,0,685
16,151,incongruent,present,bonbon,50_T_Pen.jpg,0,0,794
16,152,congruent,present,hersens,30_S_Brain.jpg,1,1,473
16,153,congruent,present,kraan,39_T_Crane.jpg,1,1,515
16,154,congruent,present,ball,4_T_Ball.jpg,1,1,560
16,155,noPic,absent,raket,blank.jpg,0,1,557
16,156,incongruent,present,zweep,30_S_Brain.jpg,1,1,666
16,157,noPic,absent,zweep,blank.jpg,0,1,563
16,158,congruent,present,bonbon,52_T_Bonbon.jpg,1,1,596
16,159,congruent,present,ball,4_T_Ball.jpg,1,1,539
16,160,noPic,absent,kussen,blank.jpg,0,1,605
16,161,incongruent,present,kussen,28_T_Butterfly.jpg,1,1,572
16,162,noPic,absent,spuitje,blank.jpg,0,1,722
16,163,congruent,present,vlinder,28_T_Butterfly.jpg,1,1,587
16,164,noPic,absent,banaan,blank.jpg,0,1,1532
16,165,noPic,absent,kraan,blank.jpg,0,1,698
16,166,congruent,present,banaan,1_T_Banaan.jpg,1,1,568
16,167,incongruent,present,fluit,52_T_Bonbon.jpg,1,1,621
16,168,congruent,present,banaan,1_T_Banaan.jpg,0,0,606
16,169,incongruent,present,hark,32_T_Hat.jpg,1,1,575
16,170,noPic,absent,fluit,blank.jpg,0,1,608
16,171,incongruent,present,palm,52_T_Bonbon.jpg,1,1,1442
16,172,noPic,absent,ball,blank.jpg,0,1,502
16,173,congruent,present,kraan,39_T_Crane.jpg,1,1,527
16,174,noPic,absent,banaan,blank.jpg,0,1,1449
16,175,congruent,present,hark,38_T_Hark.jpg,1,1,490
16,176,incongruent,present,kraan,52_T_Bonbon.jpg,1,1,618
16,177,congruent,present,hersens,30_S_Brain.jpg,1,1,510
16,178,noPic,absent,kussen,blank.jpg,0,1,527
16,179,noPic,absent,zweep,blank.jpg,0,1,611
16,180,noPic,absent,kraan,blank.jpg,0,1,578
16,181,noPic,absent,palm,blank.jpg,0,1,629
16,182,congruent,present,vlinder,28_T_Butterfly.jpg,1,1,528
16,183,noPic,absent,fluit,blank.jpg,0,1,522
16,184,congruent,present,ball,4_T_Ball.jpg,0,0,637
16,185,incongruent,present,fles,1_T_Banaan.jpg,0,0,726
16,186,noPic,absent,raket,blank.jpg,0,1,604
16,187,noPic,absent,ball,blank.jpg,0,1,505
16,188,congruent,present,pen,50_T_Pen.jpg,0,0,541
16,189,incongruent,present,ball,1_T_Banaan.jpg,0,0,697
16,190,incongruent,present,fluit,50_T_Pen.jpg,1,1,566
16,191,noPic,absent,hersens,blank.jpg,0,1,646
16,192,noPic,absent,zweep,blank.jpg,0,1,554
16,193,incongruent,present,fluit,51_Control.jpg,1,1,570
16,194,incongruent,present,spuitje,39_T_Crane.jpg,1,1,613
16,195,congruent,present,pen,50_T_Pen.jpg,1,1,586
16,196,noPic,absent,pen,blank.jpg,0,1,650
16,197,incongruent,present,pen,52_T_Bonbon.jpg,1,1,461
16,198,congruent,present,raket,17_T_Rocket.jpg,0,0,491
16,199,congruent,present,hoed,32_T_Hat.jpg,1,1,571
16,200,incongruent,present,fles,30_S_Brain.jpg,0,0,512
16,201,noPic,absent,fles,blank.jpg,0,1,782
16,202,noPic,absent,vlinder,blank.jpg,0,1,723
16,203,noPic,absent,spuitje,blank.jpg,0,1,679
16,204,noPic,absent,raket,blank.jpg,0,1,662
16,205,noPic,absent,bonbon,blank.jpg,0,1,531
16,206,noPic,absent,zweep,blank.jpg,0,1,1361
16,207,incongruent,present,hersens,29_T_Whip.jpg,1,1,549
16,208,noPic,absent,bonbon,blank.jpg,0,1,494
16,209,noPic,absent,zweep,blank.jpg,0,1,459
16,210,congruent,present,ball,4_T_Ball.jpg,1,1,693
16,211,noPic,absent,kussen,blank.jpg,0,1,484
16,212,noPic,absent,vlinder,blank.jpg,0,1,518
16,213,noPic,absent,banaan,blank.jpg,0,1,654
16,214,incongruent,present,hark,49_T_Injection.jpg,0,0,629
16,215,congruent,present,fluit,36_T_Flute.jpg,0,0,488
16,216,congruent,present,raket,17_T_Rocket.jpg,1,1,1384
16,217,noPic,absent,bonbon,blank.jpg,0,1,1140
16,218,noPic,absent,raket,blank.jpg,0,1,630
16,219,noPic,absent,kussen,blank.jpg,0,1,646
16,220,incongruent,present,banaan,29_T_Whip.jpg,1,1,670
16,221,incongruent,present,kraan,51_Control.jpg,0,0,567
16,222,noPic,absent,kraan,blank.jpg,0,1,688
16,223,congruent,present,kussen,12_T_Cushion.jpg,0,0,758
16,224,noPic,absent,zweep,blank.jpg,0,1,650
16,225,noPic,absent,kraan,blank.jpg,0,1,509
16,226,noPic,absent,raket,blank.jpg,0,1,885
16,227,noPic,absent,pen,blank.jpg,0,1,757
16,228,noPic,absent,spuitje,blank.jpg,0,1,844
16,229,incongruent,present,pen,51_Control.jpg,1,1,538
16,230,noPic,absent,vlinder,blank.jpg,0,1,867
16,231,noPic,absent,fluit,blank.jpg,0,1,764
16,232,congruent,present,raket,17_T_Rocket.jpg,1,1,602
16,233,incongruent,present,kussen,29_T_Whip.jpg,0,0,477
16,234,congruent,present,zweep,29_T_Whip.jpg,1,1,570
16,235,incongruent,present,banaan,28_T_Butterfly.jpg,1,1,584
16,236,noPic,absent,kussen,blank.jpg,0,1,667
16,237,congruent,present,kussen,12_T_Cushion.jpg,0,0,518
16,238,incongruent,present,bonbon,36_T_Flute.jpg,1,1,769
16,239,noPic,absent,fles,blank.jpg,0,1,719
16,240,noPic,absent,kussen,blank.jpg,0,1,460
16,241,congruent,present,pen,50_T_Pen.jpg,1,1,660
16,242,noPic,absent,raket,blank.jpg,0,1,607
16,243,noPic,absent,hark,blank.jpg,0,1,1646
16,244,noPic,absent,pen,blank.jpg,0,1,728
16,245,noPic,absent,banaan,blank.jpg,0,1,569
16,246,noPic,absent,palm,blank.jpg,0,1,748
16,247,noPic,absent,banaan,blank.jpg,0,1,744
16,248,incongruent,present,palm,49_T_Injection.jpg,0,0,701
16,249,noPic,absent,bonbon,blank.jpg,0,1,552
16,250,congruent,present,hersens,30_S_Brain.jpg,0,0,487
16,251,incongruent,present,spuitje,38_T_Hark.jpg,1,1,535
16,252,noPic,absent,zweep,blank.jpg,0,1,534
16,253,incongruent,present,hark,39_T_Crane.jpg,1,1,1650
16,254,congruent,present,raket,17_T_Rocket.jpg,1,1,613
16,255,noPic,absent,palm,blank.jpg,0,1,833
16,256,incongruent,present,hoed,38_T_Hark.jpg,1,1,737
17,1,noPic,absent,ball,blank.jpg,0,1,1966
17,2,noPic,absent,hoed,blank.jpg,0,1,1551
17,3,incongruent,present,kussen,17_T_Rocket.jpg,0,0,1310
17,4,noPic,absent,vlinder,blank.jpg,0,1,1683
17,5,noPic,absent,banaan,blank.jpg,0,1,1144
17,6,congruent,present,ball,4_T_Ball.jpg,0,0,1135
17,7,congruent,present,pen,50_T_Pen.jpg,0,0,1189
17,8,incongruent,present,fluit,50_T_Pen.jpg,0,0,915
17,9,incongruent,present,pen,39_T_Crane.jpg,0,0,1065
17,10,incongruent,present,kussen,30_S_Brain.jpg,0,0,1238
17,11,incongruent,present,hoed,36_T_Flute.jpg,0,0,1184
17,12,noPic,absent,ball,blank.jpg,0,1,1443
17,13,congruent,present,hark,38_T_Hark.jpg,0,0,1193
17,14,congruent,present,fluit,36_T_Flute.jpg,0,0,1373
17,15,congruent,present,hersens,30_S_Brain.jpg,0,0,1246
17,16,congruent,present,raket,17_T_Rocket.jpg,0,0,1365
17,17,congruent,present,fles,8_T_Bottle.jpg,0,0,959
17,18,incongruent,present,ball,17_T_Rocket.jpg,0,0,1172
17,19,incongruent,present,pen,49_T_Injection.jpg,0,0,1031
17,20,noPic,absent,bonbon,blank.jpg,0,1,1510
17,21,noPic,absent,pen,blank.jpg,0,1,1419
17,22,noPic,absent,bonbon,blank.jpg,0,1,1392
17,23,congruent,present,banaan,1_T_Banaan.jpg,0,0,2124
17,24,incongruent,present,hersens,28_T_Butterfly.jpg,1,1,936
17,25,congruent,present,raket,17_T_Rocket.jpg,0,0,1071
17,26,noPic,absent,raket,blank.jpg,0,1,1889
17,27,incongruent,present,pen,52_T_Bonbon.jpg,1,1,1243
17,28,noPic,absent,kussen,blank.jpg,0,1,1319
17,29,noPic,absent,bonbon,blank.jpg,0,1,1111
17,30,noPic,absent,hoed,blank.jpg,0,1,1156
17,31,noPic,absent,hersens,blank.jpg,0,1,1294
17,32,noPic,absent,vlinder,blank.jpg,0,1,1337
17,33,congruent,present,raket,17_T_Rocket.jpg,0,0,1153
17,34,noPic,absent,ball,blank.jpg,0,1,1257
17,35,congruent,present,vlinder,28_T_Butterfly.jpg,1,1,1421
17,36,noPic,absent,vlinder,blank.jpg,1,0,1214
17,37,congruent,present,palm,51_Control.jpg,0,0,1390
17,38,noPic,absent,hark,blank.jpg,0,1,1263
17,39,noPic,absent,fluit,blank.jpg,1,0,1158
17,40,noPic,absent,kussen,blank.jpg,0,1,1362
17,41,congruent,present,pen,50_T_Pen.jpg,0,0,998
17,42,noPic,absent,kussen,blank.jpg,0,1,1118
17,43,incongruent,present,hark,36_T_Flute.jpg,0,0,1373
17,44,noPic,absent,bonbon,blank.jpg,1,0,1140
17,45,noPic,absent,fles,blank.jpg,0,1,985
17,46,incongruent,present,banaan,4_T_Ball.jpg,1,1,1253
17,47,congruent,present,raket,17_T_Rocket.jpg,1,1,999
17,48,congruent,present,bonbon,52_T_Bonbon.jpg,1,1,1031
17,49,congruent,present,palm,51_Control.jpg,1,1,1076
17,50,noPic,absent,zweep,blank.jpg,1,0,1145
17,51,congruent,present,kussen,12_T_Cushion.jpg,1,1,1168
17,52,noPic,absent,palm,blank.jpg,1,0,1213
17,53,congruent,present,bonbon,52_T_Bonbon.jpg,1,1,1171
17,54,congruent,present,vlinder,28_T_Butterfly.jpg,1,1,965
17,55,noPic,absent,kussen,blank.jpg,1,0,1101
17,56,congruent,present,hoed,32_T_Hat.jpg,1,1,965
17,57,incongruent,present,pen,51_Control.jpg,1,1,1357
17,58,incongruent,present,spuitje,32_T_Hat.jpg,1,1,934
17,59,congruent,present,hark,38_T_Hark.jpg,0,0,1464
17,60,noPic,absent,fluit,blank.jpg,1,0,1247
17,61,noPic,absent,ball,blank.jpg,0,1,1047
17,62,congruent,present,kussen,12_T_Cushion.jpg,1,1,1258
17,63,congruent,present,ball,4_T_Ball.jpg,1,1,904
17,64,incongruent,present,zweep,1_T_Banaan.jpg,1,1,1140
17,65,noPic,absent,spuitje,blank.jpg,1,0,1166
17,66,noPic,absent,vlinder,blank.jpg,1,0,1049
17,67,congruent,present,spuitje,49_T_Injection.jpg,1,1,1245
17,68,congruent,present,pen,50_T_Pen.jpg,0,0,1188
17,69,noPic,absent,spuitje,blank.jpg,0,1,1465
17,70,noPic,absent,kussen,blank.jpg,1,0,1416
17,71,noPic,absent,kussen,blank.jpg,1,0,1219
17,72,incongruent,present,spuitje,39_T_Crane.jpg,1,1,1483
17,73,congruent,present,hark,38_T_Hark.jpg,1,1,1005
17,74,noPic,absent,fles,blank.jpg,1,0,1552
17,75,noPic,absent,zweep,blank.jpg,1,0,1244
17,76,noPic,absent,spuitje,blank.jpg,1,0,1253
17,77,incongruent,present,ball,12_T_Cushion.jpg,1,1,1090
17,78,congruent,present,ball,4_T_Ball.jpg,1,1,1236
17,79,noPic,absent,pen,blank.jpg,1,0,1882
17,80,congruent,present,fles,8_T_Bottle.jpg,1,1,1039
17,81,noPic,absent,ball,blank.jpg,1,0,1333
17,82,noPic,absent,kraan,blank.jpg,1,0,1447
17,83,noPic,absent,hersens,blank.jpg,1,0,1210
17,84,incongruent,present,spuitje,36_T_Flute.jpg,1,1,1010
17,85,noPic,absent,hoed,blank.jpg,1,0,1326
17,86,noPic,absent,zweep,blank.jpg,1,0,1088
17,87,incongruent,present,fles,4_T_Ball.jpg,1,1,891
17,88,noPic,absent,vlinder,blank.jpg,1,0,1870
17,89,incongruent,present,fles,1_T_Banaan.jpg,1,1,1379
17,90,congruent,present,vlinder,28_T_Butterfly.jpg,1,1,1398
17,91,congruent,present,fles,8_T_Bottle.jpg,1,1,1491
17,92,noPic,absent,fles,blank.jpg,0,1,1331
17,93,noPic,absent,palm,blank.jpg,0,1,1447
17,94,incongruent,present,fluit,52_T_Bonbon.jpg,1,1,1052
17,95,noPic,absent,kussen,blank.jpg,0,1,1428
17,96,noPic,absent,banaan,blank.jpg,0,1,1253
17,97,congruent,present,bonbon,52_T_Bonbon.jpg,0,0,1261
17,98,noPic,absent,palm,blank.jpg,0,1,1281
17,99,congruent,present,palm,51_Control.jpg,1,1,2395
17,100,incongruent,present,hersens,17_T_Rocket.jpg,1,1,1669
17,101,noPic,absent,raket,blank.jpg,1,0,1542
17,102,congruent,present,kraan,39_T_Crane.jpg,1,1,1823
17,103,noPic,absent,ball,blank.jpg,0,1,1820
17,104,incongruent,present,raket,4_T_Ball.jpg,1,1,1157
17,105,noPic,absent,pen,blank.jpg,0,1,1079
17,106,noPic,absent,raket,blank.jpg,0,1,1763
17,107,incongruent,present,kussen,28_T_Butterfly.jpg,1,1,953
17,108,incongruent,present,vlinder,30_S_Brain.jpg,0,0,944
17,109,noPic,absent,ball,blank.jpg,0,1,1544
17,110,congruent,present,banaan,1_T_Banaan.jpg,1,1,1566
17,111,noPic,absent,spuitje,blank.jpg,0,1,1084
17,112,incongruent,present,kussen,29_T_Whip.jpg,0,0,1088
17,113,incongruent,present,palm,50_T_Pen.jpg,0,0,1057
17,114,noPic,absent,pen,blank.jpg,0,1,1703
17,115,noPic,absent,hark,blank.jpg,0,1,886
17,116,incongruent,present,hersens,29_T_Whip.jpg,0,0,927
17,117,noPic,absent,fluit,blank.jpg,0,1,1190
17,118,noPic,absent,hoed,blank.jpg,0,1,1408
17,119,noPic,absent,fluit,blank.jpg,0,1,1541
17,120,noPic,absent,hark,blank.jpg,0,1,1170
17,121,noPic,absent,spuitje,blank.jpg,0,1,1034
17,122,incongruent,present,bonbon,50_T_Pen.jpg,0,0,1389
17,123,incongruent,present,hersens,12_T_Cushion.jpg,0,0,1228
17,124,incongruent,present,banaan,29_T_Whip.jpg,0,0,1251
17,125,noPic,absent,bonbon,blank.jpg,0,1,1169
17,126,incongruent,present,hoed,38_T_Hark.jpg,0,0,1294
17,127,noPic,absent,kraan,blank.jpg,0,1,1170
17,128,congruent,present,spuitje,49_T_Injection.jpg,0,0,1334
17,129,noPic,absent,banaan,blank.jpg,0,1,1344
17,130,congruent,present,banaan,1_T_Banaan.jpg,0,0,1129
17,131,noPic,absent,pen,blank.jpg,0,1,1075
17,132,congruent,present,vlinder,28_T_Butterfly.jpg,0,0,1387
17,133,noPic,absent,palm,blank.jpg,0,1,946
17,134,noPic,absent,fles,blank.jpg,0,1,1182
17,135,congruent,present,ball,4_T_Ball.jpg,1,1,911
17,136,incongruent,present,kraan,38_T_Hark.jpg,0,0,971
17,137,noPic,absent,kraan,blank.jpg,0,1,1161
17,138,incongruent,present,zweep,8_T_Bottle.jpg,0,0,1292
17,139,congruent,present,palm,51_Control.jpg,0,0,1196
17,140,noPic,absent,banaan,blank.jpg,0,1,1150
17,141,noPic,absent,fluit,blank.jpg,0,1,1369
17,142,noPic,absent,spuitje,blank.jpg,0,1,1363
17,143,noPic,absent,banaan,blank.jpg,0,1,1451
17,144,incongruent,present,ball,8_T_Bottle.jpg,0,0,1267
17,145,noPic,absent,zweep,blank.jpg,0,1,1362
17,146,noPic,absent,raket,blank.jpg,0,1,1704
17,147,noPic,absent,zweep,blank.jpg,0,1,1244
17,148,incongruent,present,banaan,28_T_Butterfly.jpg,0,0,1485
17,149,noPic,absent,hark,blank.jpg,0,1,1020
17,150,incongruent,present,palm,49_T_Injection.jpg,0,0,1031
17,151,noPic,absent,vlinder,blank.jpg,0,1,1326
17,152,noPic,absent,kraan,blank.jpg,0,1,1079
17,153,congruent,present,raket,17_T_Rocket.jpg,0,0,1538
17,154,congruent,present,hoed,32_T_Hat.jpg,1,1,778
17,155,noPic,absent,hersens,blank.jpg,0,1,1058
17,156,noPic,absent,zweep,blank.jpg,0,1,895
17,157,noPic,absent,fluit,blank.jpg,1,0,1582
17,158,incongruent,present,raket,8_T_Bottle.jpg,0,0,1005
17,159,incongruent,present,bonbon,36_T_Flute.jpg,0,0,1241
17,160,noPic,absent,pen,blank.jpg,0,1,1225
17,161,congruent,present,fluit,36_T_Flute.jpg,0,0,1207
17,162,noPic,absent,fles,blank.jpg,0,1,2197
17,163,noPic,absent,palm,blank.jpg,0,1,1292
17,164,noPic,absent,pen,blank.jpg,0,1,1473
17,165,congruent,present,banaan,1_T_Banaan.jpg,0,0,1653
17,166,congruent,present,zweep,29_T_Whip.jpg,0,0,1679
17,167,noPic,absent,banaan,blank.jpg,0,1,1539
17,168,noPic,absent,hersens,blank.jpg,1,0,1495
17,169,incongruent,present,hoed,49_T_Injection.jpg,0,0,1124
17,170,noPic,absent,fluit,blank.jpg,0,1,1098
17,171,congruent,present,hersens,30_S_Brain.jpg,0,0,1272
17,172,incongruent,present,hoed,39_T_Crane.jpg,0,0,1535
17,173,noPic,absent,hoed,blank.jpg,0,1,1424
17,174,congruent,present,fluit,36_T_Flute.jpg,0,0,1792
17,175,congruent,present,hark,38_T_Hark.jpg,0,0,1577
17,176,incongruent,present,palm,52_T_Bonbon.jpg,0,0,1922
17,177,noPic,absent,raket,blank.jpg,0,1,1253
17,178,noPic,absent,hersens,blank.jpg,0,1,1003
17,179,noPic,absent,fles,blank.jpg,0,1,1305
17,180,noPic,absent,raket,blank.jpg,0,1,1641
17,181,congruent,present,spuitje,49_T_Injection.jpg,0,0,1219
17,182,noPic,absent,palm,blank.jpg,0,1,1148
17,183,congruent,present,kussen,12_T_Cushion.jpg,0,0,1425
17,184,incongruent,present,raket,1_T_Banaan.jpg,0,0,1281
17,185,congruent,present,vlinder,28_T_Butterfly.jpg,0,0,1196
17,186,noPic,absent,hark,blank.jpg,0,1,1485
17,187,incongruent,present,bonbon,32_T_Hat.jpg,1,1,1200
17,188,incongruent,present,bonbon,51_Control.jpg,0,0,1090
17,189,noPic,absent,fles,blank.jpg,0,1,1657
17,190,incongruent,present,fles,30_S_Brain.jpg,1,1,883
17,191,noPic,absent,spuitje,blank.jpg,0,1,1548
17,192,noPic,absent,bonbon,blank.jpg,0,1,1192
17,193,congruent,present,fles,8_T_Bottle.jpg,1,1,1363
17,194,noPic,absent,hoed,blank.jpg,0,1,1328
17,195,noPic,absent,hark,blank.jpg,0,1,2035
17,196,noPic,absent,bonbon,blank.jpg,0,1,989
17,197,congruent,present,fluit,36_T_Flute.jpg,0,0,1181
17,198,incongruent,present,palm,38_T_Hark.jpg,0,0,1005
17,199,congruent,present,kraan,39_T_Crane.jpg,0,0,1076
17,200,congruent,present,hoed,32_T_Hat.jpg,1,1,730
17,201,noPic,absent,kraan,blank.jpg,0,1,1049
17,202,noPic,absent,palm,blank.jpg,0,1,1127
17,203,congruent,present,pen,50_T_Pen.jpg,0,0,1261
17,204,congruent,present,zweep,29_T_Whip.jpg,1,1,1453
17,205,noPic,absent,kraan,blank.jpg,0,1,1346
17,206,incongruent,present,kraan,50_T_Pen.jpg,0,0,1027
17,207,noPic,absent,hoed,blank.jpg,0,1,1037
17,208,noPic,absent,kraan,blank.jpg,0,1,1276
17,209,incongruent,present,spuitje,38_T_Hark.jpg,1,1,779
17,210,incongruent,present,fluit,32_T_Hat.jpg,1,1,1077
17,211,congruent,present,bonbon,52_T_Bonbon.jpg,1,1,1031
17,212,incongruent,present,zweep,30_S_Brain.jpg,0,0,1347
17,213,congruent,present,hersens,30_S_Brain.jpg,1,1,1083
17,214,noPic,absent,pen,blank.jpg,0,1,1151
17,215,noPic,absent,palm,blank.jpg,0,1,1131
17,216,noPic,absent,zweep,blank.jpg,0,1,1335
17,217,noPic,absent,hersens,blank.jpg,0,1,1294
17,218,noPic,absent,hersens,blank.jpg,0,1,1202
17,219,noPic,absent,vlinder,blank.jpg,0,1,1317
17,220,noPic,absent,fluit,blank.jpg,0,1,1278
17,221,noPic,absent,raket,blank.jpg,0,1,1187
17,222,incongruent,present,hark,49_T_Injection.jpg,0,0,907
17,223,congruent,present,spuitje,49_T_Injection.jpg,0,0,1096
17,224,incongruent,present,ball,1_T_Banaan.jpg,0,0,1187
17,225,noPic,absent,zweep,blank.jpg,0,1,1221
17,226,congruent,present,kussen,12_T_Cushion.jpg,0,0,1191
17,227,incongruent,present,kraan,52_T_Bonbon.jpg,0,0,1151
17,228,incongruent,present,hark,39_T_Crane.jpg,0,0,1171
17,229,incongruent,present,kraan,51_Control.jpg,0,0,1052
17,230,noPic,absent,hoed,blank.jpg,0,1,1573
17,231,noPic,absent,kraan,blank.jpg,0,1,2044
17,232,noPic,absent,raket,blank.jpg,0,1,1119
17,233,noPic,absent,hark,blank.jpg,0,1,887
17,234,noPic,absent,spuitje,blank.jpg,0,1,737
17,235,incongruent,present,vlinder,8_T_Bottle.jpg,0,0,1270
17,236,noPic,absent,vlinder,blank.jpg,0,1,1139
17,237,congruent,present,hoed,32_T_Hat.jpg,0,0,963
17,238,noPic,absent,raket,blank.jpg,0,1,907
17,239,incongruent,present,fluit,51_Control.jpg,0,0,1318
17,240,incongruent,present,vlinder,29_T_Whip.jpg,0,0,998
17,241,incongruent,present,raket,12_T_Cushion.jpg,0,0,843
17,242,incongruent,present,zweep,4_T_Ball.jpg,0,0,959
17,243,noPic,absent,kussen,blank.jpg,0,1,951
17,244,noPic,absent,bonbon,blank.jpg,0,1,1097
17,245,congruent,present,kraan,39_T_Crane.jpg,0,0,1380
17,246,congruent,present,zweep,29_T_Whip.jpg,0,0,934
17,247,noPic,absent,ball,blank.jpg,0,1,1284
17,248,noPic,absent,fles,blank.jpg,0,1,1313
17,249,noPic,absent,hersens,blank.jpg,0,1,987
17,250,congruent,present,zweep,29_T_Whip.jpg,0,0,1389
17,251,noPic,absent,hark,blank.jpg,0,1,1348
17,252,incongruent,present,fles,12_T_Cushion.jpg,0,0,1200
17,253,noPic,absent,banaan,blank.jpg,0,1,1202
17,254,congruent,present,kraan,39_T_Crane.jpg,0,0,1005
17,255,congruent,present,hersens,30_S_Brain.jpg,0,0,1148
17,256,incongruent,present,hark,32_T_Hat.jpg,0,0,993
18,1,noPic,absent,raket,blank.jpg,0,1,1465
18,2,noPic,absent,bonbon,blank.jpg,0,1,1370
18,3,noPic,absent,zweep,blank.jpg,1,0,1855
18,4,congruent,present,kussen,12_T_Cushion.jpg,0,0,1050
18,5,noPic,absent,zweep,blank.jpg,0,1,1479
18,6,congruent,present,banaan,1_T_Banaan.jpg,1,1,1774
18,7,noPic,absent,hark,blank.jpg,0,1,1455
18,8,noPic,absent,vlinder,blank.jpg,0,1,1038
18,9,noPic,absent,fles,blank.jpg,0,1,1852
18,10,noPic,absent,bonbon,blank.jpg,0,1,1027
18,11,noPic,absent,ball,blank.jpg,0,1,1007
18,12,incongruent,present,pen,39_T_Crane.jpg,1,1,984
18,13,incongruent,present,zweep,8_T_Bottle.jpg,0,0,2115
18,14,congruent,present,hersens,30_S_Brain.jpg,1,1,719
18,15,noPic,absent,kraan,blank.jpg,0,1,907
18,16,congruent,present,spuitje,49_T_Injection.jpg,0,0,1006
18,17,noPic,absent,vlinder,blank.jpg,0,1,992
18,18,congruent,present,zweep,29_T_Whip.jpg,0,0,883
18,19,noPic,absent,hark,blank.jpg,0,1,1001
18,20,noPic,absent,banaan,blank.jpg,0,1,1002
18,21,noPic,absent,banaan,blank.jpg,0,1,1103
18,22,congruent,present,pen,50_T_Pen.jpg,0,0,1088
18,23,incongruent,present,spuitje,36_T_Flute.jpg,0,0,999
18,24,congruent,present,fles,8_T_Bottle.jpg,0,0,1046
18,25,incongruent,present,kraan,51_Control.jpg,1,1,873
18,26,congruent,present,bonbon,52_T_Bonbon.jpg,1,1,1247
18,27,noPic,absent,spuitje,blank.jpg,0,1,999
18,28,noPic,absent,ball,blank.jpg,0,1,1024
18,29,incongruent,present,bonbon,50_T_Pen.jpg,0,0,1067
18,30,congruent,present,raket,17_T_Rocket.jpg,0,0,921
18,31,noPic,absent,hark,blank.jpg,0,1,1142
18,32,noPic,absent,ball,blank.jpg,0,1,1225
18,33,noPic,absent,palm,blank.jpg,0,1,1072
18,34,noPic,absent,hoed,blank.jpg,0,1,1152
18,35,incongruent,present,banaan,28_T_Butterfly.jpg,1,1,1187
18,36,noPic,absent,spuitje,blank.jpg,1,0,1466
18,37,noPic,absent,fluit,blank.jpg,0,1,852
18,38,incongruent,present,kraan,52_T_Bonbon.jpg,0,0,1155
18,39,congruent,present,vlinder,28_T_Butterfly.jpg,1,1,925
18,40,incongruent,present,fles,4_T_Ball.jpg,1,1,1157
18,41,noPic,absent,vlinder,blank.jpg,0,1,1017
18,42,incongruent,present,raket,12_T_Cushion.jpg,0,0,907
18,43,incongruent,present,hark,36_T_Flute.jpg,0,0,1174
18,44,congruent,present,raket,17_T_Rocket.jpg,0,0,1014
18,45,congruent,present,banaan,1_T_Banaan.jpg,0,0,1159
18,46,noPic,absent,palm,blank.jpg,0,1,1239
18,47,incongruent,present,hoed,38_T_Hark.jpg,0,0,1059
18,48,congruent,present,kraan,39_T_Crane.jpg,0,0,928
18,49,congruent,present,zweep,29_T_Whip.jpg,0,0,1047
18,50,congruent,present,zweep,29_T_Whip.jpg,0,0,1364
18,51,noPic,absent,banaan,blank.jpg,0,1,935
18,52,congruent,present,hark,38_T_Hark.jpg,0,0,1085
18,53,incongruent,present,spuitje,32_T_Hat.jpg,0,0,951
18,54,noPic,absent,hersens,blank.jpg,0,1,1012
18,55,noPic,absent,banaan,blank.jpg,0,1,895
18,56,noPic,absent,vlinder,blank.jpg,0,1,994
18,57,incongruent,present,palm,52_T_Bonbon.jpg,0,0,893
18,58,noPic,absent,hersens,blank.jpg,0,1,1002
18,59,congruent,present,bonbon,52_T_Bonbon.jpg,0,0,999
18,60,noPic,absent,ball,blank.jpg,0,1,1082
18,61,incongruent,present,spuitje,38_T_Hark.jpg,0,0,1072
18,62,congruent,present,spuitje,49_T_Injection.jpg,0,0,995
18,63,noPic,absent,hoed,blank.jpg,0,1,960
18,64,noPic,absent,palm,blank.jpg,0,1,799
18,65,noPic,absent,kussen,blank.jpg,0,1,1166
18,66,incongruent,present,palm,50_T_Pen.jpg,0,0,1006
18,67,noPic,absent,kraan,blank.jpg,0,1,1455
18,68,noPic,absent,zweep,blank.jpg,0,1,932
18,69,congruent,present,hoed,32_T_Hat.jpg,0,0,974
18,70,noPic,absent,hoed,blank.jpg,0,1,1045
18,71,congruent,present,raket,17_T_Rocket.jpg,0,0,1219
18,72,noPic,absent,ball,blank.jpg,0,1,1023
18,73,noPic,absent,hersens,blank.jpg,0,1,989
18,74,incongruent,present,kraan,38_T_Hark.jpg,0,0,1034
18,75,incongruent,present,banaan,29_T_Whip.jpg,1,1,897
18,76,noPic,absent,raket,blank.jpg,0,1,1139
18,77,noPic,absent,fles,blank.jpg,0,1,1036
18,78,congruent,present,kraan,39_T_Crane.jpg,0,0,864
18,79,congruent,present,ball,4_T_Ball.jpg,0,0,1063
18,80,noPic,absent,zweep,blank.jpg,0,1,1450
18,81,noPic,absent,hark,blank.jpg,0,1,967
18,82,noPic,absent,hoed,blank.jpg,0,1,862
18,83,incongruent,present,bonbon,36_T_Flute.jpg,0,0,959
18,84,noPic,absent,pen,blank.jpg,0,1,880
18,85,congruent,present,banaan,1_T_Banaan.jpg,0,0,868
18,86,congruent,present,kraan,39_T_Crane.jpg,0,0,1540
18,87,noPic,absent,zweep,blank.jpg,0,1,1016
18,88,incongruent,present,ball,12_T_Cushion.jpg,0,0,884
18,89,noPic,absent,kussen,blank.jpg,0,1,993
18,90,congruent,present,kussen,12_T_Cushion.jpg,0,0,1147
18,91,noPic,absent,zweep,blank.jpg,0,1,1802
18,92,noPic,absent,hersens,blank.jpg,0,1,1294
18,93,congruent,present,fles,8_T_Bottle.jpg,0,0,987
18,94,incongruent,present,ball,17_T_Rocket.jpg,0,0,962
18,95,noPic,absent,kussen,blank.jpg,0,1,939
18,96,incongruent,present,vlinder,8_T_Bottle.jpg,0,0,909
18,97,congruent,present,hoed,32_T_Hat.jpg,0,0,890
18,98,incongruent,present,hark,49_T_Injection.jpg,0,0,773
18,99,noPic,absent,fluit,blank.jpg,0,1,1156
18,100,noPic,absent,kraan,blank.jpg,0,1,1032
18,101,noPic,absent,kraan,blank.jpg,0,1,1025
18,102,congruent,present,fluit,36_T_Flute.jpg,0,0,973
18,103,incongruent,present,kussen,28_T_Butterfly.jpg,0,0,1003
18,104,congruent,present,ball,4_T_Ball.jpg,0,0,993
18,105,noPic,absent,ball,blank.jpg,0,1,1015
18,106,noPic,absent,raket,blank.jpg,0,1,1153
18,107,congruent,present,ball,4_T_Ball.jpg,0,0,983
18,108,noPic,absent,kussen,blank.jpg,0,1,1029
18,109,noPic,absent,hersens,blank.jpg,0,1,1096
18,110,incongruent,present,bonbon,32_T_Hat.jpg,0,0,1072
18,111,congruent,present,bonbon,52_T_Bonbon.jpg,0,0,1226
18,112,incongruent,present,ball,1_T_Banaan.jpg,0,0,767
18,113,incongruent,present,pen,49_T_Injection.jpg,0,0,795
18,114,congruent,present,fluit,36_T_Flute.jpg,0,0,1147
18,115,congruent,present,pen,50_T_Pen.jpg,0,0,937
18,116,noPic,absent,hersens,blank.jpg,0,1,970
18,117,congruent,present,fluit,36_T_Flute.jpg,0,0,1094
18,118,incongruent,present,hersens,12_T_Cushion.jpg,0,0,1487
18,119,noPic,absent,pen,blank.jpg,0,1,927
18,120,noPic,absent,spuitje,blank.jpg,0,1,1073
18,121,noPic,absent,ball,blank.jpg,0,1,976
18,122,congruent,present,fles,8_T_Bottle.jpg,0,0,1186
18,123,noPic,absent,vlinder,blank.jpg,0,1,1089
18,124,congruent,present,palm,51_Control.jpg,1,1,968
18,125,noPic,absent,kussen,blank.jpg,0,1,1020
18,126,noPic,absent,raket,blank.jpg,0,1,1142
18,127,noPic,absent,fluit,blank.jpg,0,1,1107
18,128,noPic,absent,raket,blank.jpg,0,1,705
18,129,incongruent,present,fluit,32_T_Hat.jpg,0,0,938
18,130,noPic,absent,vlinder,blank.jpg,1,0,1112
18,131,noPic,absent,hark,blank.jpg,0,1,863
18,132,noPic,absent,banaan,blank.jpg,0,1,1342
18,133,noPic,absent,banaan,blank.jpg,0,1,1050
18,134,noPic,absent,pen,blank.jpg,0,1,1122
18,135,congruent,present,hark,38_T_Hark.jpg,0,0,1027
18,136,incongruent,present,pen,51_Control.jpg,1,1,785
18,137,noPic,absent,spuitje,blank.jpg,0,1,998
18,138,noPic,absent,raket,blank.jpg,0,1,835
18,139,incongruent,present,hersens,29_T_Whip.jpg,0,0,859
18,140,congruent,present,vlinder,28_T_Butterfly.jpg,1,1,871
18,141,noPic,absent,palm,blank.jpg,0,1,1045
18,142,incongruent,present,kussen,29_T_Whip.jpg,0,0,862
18,143,noPic,absent,fles,blank.jpg,0,1,816
18,144,incongruent,present,zweep,1_T_Banaan.jpg,0,0,938
18,145,noPic,absent,fluit,blank.jpg,0,1,966
18,146,incongruent,present,fles,1_T_Banaan.jpg,0,0,873
18,147,incongruent,present,zweep,30_S_Brain.jpg,1,1,864
18,148,congruent,present,hark,38_T_Hark.jpg,0,0,843
18,149,congruent,present,bonbon,52_T_Bonbon.jpg,1,1,841
18,150,noPic,absent,pen,blank.jpg,0,1,846
18,151,congruent,present,spuitje,49_T_Injection.jpg,0,0,1519
18,152,congruent,present,fluit,36_T_Flute.jpg,0,0,933
18,153,noPic,absent,raket,blank.jpg,0,1,1069
18,154,noPic,absent,fluit,blank.jpg,0,1,839
18,155,noPic,absent,spuitje,blank.jpg,0,1,989
18,156,incongruent,present,banaan,4_T_Ball.jpg,1,1,768
18,157,noPic,absent,zweep,blank.jpg,0,1,821
18,158,incongruent,present,palm,49_T_Injection.jpg,1,1,994
18,159,noPic,absent,fles,blank.jpg,0,1,795
18,160,congruent,present,vlinder,28_T_Butterfly.jpg,0,0,1085
18,161,noPic,absent,kussen,blank.jpg,0,1,1013
18,162,noPic,absent,palm,blank.jpg,0,1,973
18,163,noPic,absent,raket,blank.jpg,0,1,978
18,164,noPic,absent,hark,blank.jpg,1,0,939
18,165,incongruent,present,fluit,50_T_Pen.jpg,0,0,943
18,166,congruent,present,raket,17_T_Rocket.jpg,0,0,975
18,167,noPic,absent,banaan,blank.jpg,0,1,1018
18,168,noPic,absent,kraan,blank.jpg,0,1,653
18,169,incongruent,present,hoed,39_T_Crane.jpg,1,1,894
18,170,noPic,absent,raket,blank.jpg,0,1,978
18,171,noPic,absent,fles,blank.jpg,0,1,1039
18,172,noPic,absent,spuitje,blank.jpg,0,1,939
18,173,incongruent,present,fluit,51_Control.jpg,1,1,780
18,174,congruent,present,zweep,29_T_Whip.jpg,0,0,932
18,175,incongruent,present,hoed,36_T_Flute.jpg,0,0,858
18,176,incongruent,present,hersens,17_T_Rocket.jpg,0,0,888
18,177,congruent,present,spuitje,49_T_Injection.jpg,0,0,928
18,178,noPic,absent,bonbon,blank.jpg,1,0,1084
18,179,congruent,present,ball,4_T_Ball.jpg,1,1,776
18,180,incongruent,present,spuitje,39_T_Crane.jpg,0,0,1076
18,181,noPic,absent,kussen,blank.jpg,0,1,1007
18,182,noPic,absent,bonbon,blank.jpg,1,0,751
18,183,congruent,present,fles,8_T_Bottle.jpg,1,1,734
18,184,incongruent,present,hoed,49_T_Injection.jpg,0,0,911
18,185,incongruent,present,hersens,28_T_Butterfly.jpg,1,1,732
18,186,noPic,absent,spuitje,blank.jpg,0,1,882
18,187,noPic,absent,palm,blank.jpg,0,1,1021
18,188,noPic,absent,fluit,blank.jpg,0,1,1553
18,189,noPic,absent,fles,blank.jpg,0,1,1221
18,190,incongruent,present,vlinder,30_S_Brain.jpg,1,1,668
18,191,congruent,present,kussen,12_T_Cushion.jpg,0,0,945
18,192,incongruent,present,fluit,52_T_Bonbon.jpg,1,1,722
18,193,incongruent,present,raket,8_T_Bottle.jpg,0,0,944
18,194,congruent,present,palm,51_Control.jpg,1,1,555
18,195,noPic,absent,spuitje,blank.jpg,0,1,1055
18,196,noPic,absent,fluit,blank.jpg,1,0,926
18,197,noPic,absent,kraan,blank.jpg,1,0,1052
18,198,noPic,absent,fluit,blank.jpg,0,1,1397
18,199,noPic,absent,hoed,blank.jpg,1,0,822
18,200,noPic,absent,kussen,blank.jpg,0,1,844
18,201,noPic,absent,hersens,blank.jpg,0,1,976
18,202,noPic,absent,vlinder,blank.jpg,1,0,935
18,203,noPic,absent,kraan,blank.jpg,1,0,1168
18,204,noPic,absent,zweep,blank.jpg,0,1,923
18,205,noPic,absent,hark,blank.jpg,0,1,855
18,206,noPic,absent,hoed,blank.jpg,0,1,1354
18,207,congruent,present,hersens,30_S_Brain.jpg,1,1,610
18,208,congruent,present,palm,51_Control.jpg,1,1,710
18,209,noPic,absent,palm,blank.jpg,0,1,921
18,210,noPic,absent,pen,blank.jpg,0,1,939
18,211,noPic,absent,kraan,blank.jpg,0,1,892
18,212,congruent,present,hark,38_T_Hark.jpg,0,0,867
18,213,noPic,absent,pen,blank.jpg,1,0,1162
18,214,incongruent,present,raket,4_T_Ball.jpg,1,1,704
18,215,noPic,absent,vlinder,blank.jpg,1,0,1138
18,216,incongruent,present,fles,12_T_Cushion.jpg,0,0,933
18,217,congruent,present,hersens,30_S_Brain.jpg,1,1,626
18,218,congruent,present,palm,51_Control.jpg,1,1,618
18,219,noPic,absent,bonbon,blank.jpg,0,1,864
18,220,congruent,present,kraan,39_T_Crane.jpg,1,1,1215
18,221,congruent,present,vlinder,28_T_Butterfly.jpg,1,1,899
18,222,incongruent,present,fles,30_S_Brain.jpg,1,1,697
18,223,incongruent,present,kraan,50_T_Pen.jpg,0,0,815
18,224,noPic,absent,ball,blank.jpg,0,1,952
